## w(eV)         sigma(Sm^-1)     kappa(W(mK)^-1)        L12/e(Am^-1)      L22/e^2(Wm^-1)
    0.01              539832             902.668         -1.1261e+07          3.2042e+08
    0.03              539827             902.655         -1.1261e+07         3.20419e+08
    0.05              539819             902.631        -1.12609e+07         3.20415e+08
    0.07              539806             902.595        -1.12607e+07         3.20409e+08
    0.09              539789             902.546        -1.12604e+07         3.20402e+08
    0.11              539768             902.485        -1.12601e+07         3.20393e+08
    0.13              539742             902.412        -1.12598e+07         3.20382e+08
    0.15              539712             902.327        -1.12593e+07         3.20369e+08
    0.17              539678              902.23        -1.12588e+07         3.20354e+08
    0.19              539640             902.121        -1.12583e+07         3.20338e+08
    0.21              539597                 902        -1.12577e+07         3.20319e+08
    0.23              539550             901.866         -1.1257e+07         3.20299e+08
    0.25              539499             901.721        -1.12563e+07         3.20277e+08
    0.27              539443             901.563        -1.12555e+07         3.20253e+08
    0.29              539384             901.393        -1.12546e+07         3.20227e+08
    0.31              539320             901.211        -1.12537e+07           3.202e+08
    0.33              539251             901.017        -1.12527e+07          3.2017e+08
    0.35              539179             900.811        -1.12517e+07         3.20139e+08
    0.37              539102             900.593        -1.12506e+07         3.20106e+08
    0.39              539021             900.363        -1.12494e+07         3.20071e+08
    0.41              538936             900.121        -1.12482e+07         3.20034e+08
    0.43              538846             899.867        -1.12469e+07         3.19995e+08
    0.45              538752             899.601        -1.12456e+07         3.19955e+08
    0.47              538654             899.323        -1.12442e+07         3.19913e+08
    0.49              538552             899.033        -1.12427e+07         3.19869e+08
    0.51              538445             898.731        -1.12412e+07         3.19823e+08
    0.53              538334             898.417        -1.12396e+07         3.19775e+08
    0.55              538219             898.091        -1.12379e+07         3.19725e+08
    0.57              538100             897.754        -1.12362e+07         3.19674e+08
    0.59              537976             897.404        -1.12345e+07         3.19621e+08
    0.61              537849             897.042        -1.12326e+07         3.19565e+08
    0.63              537716             896.669        -1.12307e+07         3.19508e+08
    0.65              537580             896.284        -1.12288e+07          3.1945e+08
    0.67              537440             895.887        -1.12268e+07         3.19389e+08
    0.69              537295             895.478        -1.12247e+07         3.19327e+08
    0.71              537146             895.058        -1.12225e+07         3.19263e+08
    0.73              536992             894.626        -1.12203e+07         3.19196e+08
    0.75              536835             894.182        -1.12181e+07         3.19129e+08
    0.77              536673             893.726        -1.12157e+07         3.19059e+08
    0.79              536507             893.259        -1.12134e+07         3.18987e+08
    0.81              536337              892.78        -1.12109e+07         3.18914e+08
    0.83              536162              892.29        -1.12084e+07         3.18839e+08
    0.85              535984             891.788        -1.12058e+07         3.18762e+08
    0.87              535801             891.274        -1.12032e+07         3.18683e+08
    0.89              535614             890.749        -1.12005e+07         3.18603e+08
    0.91              535422             890.212        -1.11978e+07          3.1852e+08
    0.93              535227             889.664        -1.11949e+07         3.18436e+08
    0.95              535027             889.105        -1.11921e+07          3.1835e+08
    0.97              534823             888.534        -1.11891e+07         3.18262e+08
    0.99              534615             887.952        -1.11861e+07         3.18173e+08
    1.01              534403             887.358        -1.11831e+07         3.18081e+08
    1.03              534186             886.753        -1.11799e+07         3.17988e+08
    1.05              533965             886.137        -1.11767e+07         3.17893e+08
    1.07              533740             885.509        -1.11735e+07         3.17796e+08
    1.09              533511              884.87        -1.11702e+07         3.17697e+08
    1.11              533277             884.221        -1.11668e+07         3.17597e+08
    1.13              533040              883.56        -1.11634e+07         3.17495e+08
    1.15              532798             882.887        -1.11599e+07         3.17391e+08
    1.17              532552             882.204        -1.11563e+07         3.17285e+08
    1.19              532302              881.51        -1.11527e+07         3.17177e+08
    1.21              532048             880.805         -1.1149e+07         3.17068e+08
    1.23              531789             880.088        -1.11453e+07         3.16957e+08
    1.25              531526             879.361        -1.11415e+07         3.16844e+08
    1.27              531259             878.623        -1.11376e+07         3.16729e+08
    1.29              530988             877.874        -1.11337e+07         3.16612e+08
    1.31              530713             877.115        -1.11297e+07         3.16494e+08
    1.33              530434             876.344        -1.11256e+07         3.16374e+08
    1.35              530150             875.563        -1.11215e+07         3.16252e+08
    1.37              529863             874.771        -1.11173e+07         3.16129e+08
    1.39              529571             873.968        -1.11131e+07         3.16003e+08
    1.41              529275             873.155        -1.11088e+07         3.15876e+08
    1.43              528975             872.332        -1.11044e+07         3.15747e+08
    1.45              528670             871.497           -1.11e+07         3.15616e+08
    1.47              528362             870.653        -1.10955e+07         3.15484e+08
    1.49              528049             869.798         -1.1091e+07         3.15349e+08
    1.51              527733             868.932        -1.10864e+07         3.15213e+08
    1.53              527412             868.056        -1.10817e+07         3.15076e+08
    1.55              527087              867.17         -1.1077e+07         3.14936e+08
    1.57              526758             866.274        -1.10722e+07         3.14795e+08
    1.59              526425             865.367        -1.10673e+07         3.14652e+08
    1.61              526087              864.45        -1.10624e+07         3.14507e+08
    1.63              525746             863.523        -1.10574e+07          3.1436e+08
    1.65              525400             862.586        -1.10523e+07         3.14212e+08
    1.67              525051             861.639        -1.10472e+07         3.14062e+08
    1.69              524697             860.682         -1.1042e+07          3.1391e+08
    1.71              524339             859.716        -1.10368e+07         3.13756e+08
    1.73              523977             858.739        -1.10315e+07         3.13601e+08
    1.75              523611             857.752        -1.10261e+07         3.13444e+08
    1.77              523241             856.756        -1.10207e+07         3.13285e+08
    1.79              522867              855.75        -1.10152e+07         3.13125e+08
    1.81              522489             854.734        -1.10097e+07         3.12962e+08
    1.83              522107             853.709        -1.10041e+07         3.12798e+08
    1.85              521721             852.674        -1.09984e+07         3.12633e+08
    1.87              521330              851.63        -1.09926e+07         3.12465e+08
    1.89              520936             850.576        -1.09868e+07         3.12296e+08
    1.91              520537             849.512         -1.0981e+07         3.12125e+08
    1.93              520135              848.44         -1.0975e+07         3.11953e+08
    1.95              519728             847.358        -1.09691e+07         3.11778e+08
    1.97              519318             846.267         -1.0963e+07         3.11602e+08
    1.99              518903             845.166        -1.09569e+07         3.11424e+08
    2.01              518484             844.057        -1.09507e+07         3.11245e+08
    2.03              518062             842.938        -1.09445e+07         3.11064e+08
    2.05              517635              841.81        -1.09381e+07         3.10881e+08
    2.07              517204             840.674        -1.09318e+07         3.10696e+08
    2.09              516770             839.528        -1.09253e+07          3.1051e+08
    2.11              516331             838.374        -1.09188e+07         3.10322e+08
    2.13              515888              837.21        -1.09123e+07         3.10132e+08
    2.15              515442             836.038        -1.09057e+07         3.09941e+08
    2.17              514991             834.857         -1.0899e+07         3.09747e+08
    2.19              514536             833.668        -1.08922e+07         3.09553e+08
    2.21              514078              832.47        -1.08854e+07         3.09356e+08
    2.23              513615             831.264        -1.08785e+07         3.09158e+08
    2.25              513149             830.049        -1.08716e+07         3.08958e+08
    2.27              512678             828.825        -1.08646e+07         3.08756e+08
    2.29              512204             827.593        -1.08575e+07         3.08553e+08
    2.31              511726             826.353        -1.08504e+07         3.08348e+08
    2.33              511243             825.105        -1.08432e+07         3.08142e+08
    2.35              510757             823.849        -1.08359e+07         3.07933e+08
    2.37              510267             822.584        -1.08286e+07         3.07723e+08
    2.39              509773             821.311        -1.08212e+07         3.07512e+08
    2.41              509275             820.031        -1.08137e+07         3.07298e+08
    2.43              508773             818.742        -1.08062e+07         3.07083e+08
    2.45              508268             817.446        -1.07987e+07         3.06867e+08
    2.47              507758             816.141         -1.0791e+07         3.06648e+08
    2.49              507245             814.829        -1.07833e+07         3.06428e+08
    2.51              506727             813.509        -1.07755e+07         3.06207e+08
    2.53              506206             812.182        -1.07677e+07         3.05983e+08
    2.55              505681             810.847        -1.07598e+07         3.05759e+08
    2.57              505152             809.504        -1.07518e+07         3.05532e+08
    2.59              504619             808.154        -1.07438e+07         3.05304e+08
    2.61              504082             806.797        -1.07357e+07         3.05074e+08
    2.63              503542             805.432        -1.07275e+07         3.04842e+08
    2.65              502997              804.06        -1.07193e+07         3.04609e+08
    2.67              502449             802.681         -1.0711e+07         3.04374e+08
    2.69              501897             801.294        -1.07027e+07         3.04138e+08
    2.71              501342             799.901        -1.06943e+07         3.03899e+08
    2.73              500782               798.5        -1.06858e+07          3.0366e+08
    2.75              500219             797.093        -1.06772e+07         3.03418e+08
    2.77              499651             795.678        -1.06686e+07         3.03175e+08
    2.79              499080             794.257          -1.066e+07         3.02931e+08
    2.81              498506             792.829        -1.06512e+07         3.02684e+08
    2.83              497927             791.394        -1.06424e+07         3.02436e+08
    2.85              497345             789.952        -1.06336e+07         3.02187e+08
    2.87              496759             788.504        -1.06246e+07         3.01936e+08
    2.89              496169              787.05        -1.06156e+07         3.01683e+08
    2.91              495576             785.589        -1.06066e+07         3.01428e+08
    2.93              494979             784.121        -1.05974e+07         3.01172e+08
    2.95              494378             782.647        -1.05883e+07         3.00915e+08
    2.97              493773             781.167         -1.0579e+07         3.00655e+08
    2.99              493165              779.68        -1.05697e+07         3.00394e+08
    3.01              492553             778.188        -1.05603e+07         3.00132e+08
    3.03              491937             776.689        -1.05508e+07         2.99868e+08
    3.05              491317             775.184        -1.05413e+07         2.99602e+08
    3.07              490694             773.674        -1.05318e+07         2.99335e+08
    3.09              490068             772.157        -1.05221e+07         2.99066e+08
    3.11              489437             770.634        -1.05124e+07         2.98795e+08
    3.13              488803             769.106        -1.05026e+07         2.98523e+08
    3.15              488166             767.572        -1.04928e+07         2.98249e+08
    3.17              487524             766.032        -1.04829e+07         2.97974e+08
    3.19              486879             764.487        -1.04729e+07         2.97697e+08
    3.21              486231             762.936        -1.04629e+07         2.97419e+08
    3.23              485579              761.38        -1.04528e+07         2.97139e+08
    3.25              484923             759.818        -1.04426e+07         2.96857e+08
    3.27              484264             758.251        -1.04324e+07         2.96574e+08
    3.29              483601             756.678        -1.04221e+07         2.96289e+08
    3.31              482934             755.101        -1.04117e+07         2.96002e+08
    3.33              482264             753.518        -1.04013e+07         2.95714e+08
    3.35              481591              751.93        -1.03908e+07         2.95425e+08
    3.37              480914             750.337        -1.03803e+07         2.95133e+08
    3.39              480233             748.739        -1.03696e+07         2.94841e+08
    3.41              479549             747.136        -1.03589e+07         2.94546e+08
    3.43              478861             745.528        -1.03482e+07          2.9425e+08
    3.45              478170             743.915        -1.03374e+07         2.93953e+08
    3.47              477476             742.298        -1.03265e+07         2.93654e+08
    3.49              476778             740.676        -1.03155e+07         2.93353e+08
    3.51              476076             739.049        -1.03045e+07         2.93051e+08
    3.53              475371             737.418        -1.02935e+07         2.92747e+08
    3.55              474662             735.782        -1.02823e+07         2.92442e+08
    3.57              473950             734.142        -1.02711e+07         2.92135e+08
    3.59              473235             732.497        -1.02598e+07         2.91826e+08
    3.61              472516             730.848        -1.02485e+07         2.91516e+08
    3.63              471794             729.195        -1.02371e+07         2.91205e+08
    3.65              471069             727.538        -1.02256e+07         2.90892e+08
    3.67              470340             725.876        -1.02141e+07         2.90577e+08
    3.69              469607              724.21        -1.02025e+07         2.90261e+08
    3.71              468871             722.541        -1.01908e+07         2.89943e+08
    3.73              468132             720.867        -1.01791e+07         2.89623e+08
    3.75              467390             719.189        -1.01673e+07         2.89303e+08
    3.77              466644             717.508        -1.01554e+07          2.8898e+08
    3.79              465895             715.823        -1.01435e+07         2.88656e+08
    3.81              465143             714.134        -1.01315e+07         2.88331e+08
    3.83              464387             712.441        -1.01194e+07         2.88003e+08
    3.85              463628             710.745        -1.01073e+07         2.87675e+08
    3.87              462865             709.045        -1.00951e+07         2.87345e+08
    3.89              462100             707.342        -1.00829e+07         2.87013e+08
    3.91              461331             705.635        -1.00705e+07          2.8668e+08
    3.93              460559             703.925        -1.00582e+07         2.86345e+08
    3.95              459784             702.212        -1.00457e+07         2.86008e+08
    3.97              459005             700.495        -1.00332e+07         2.85671e+08
    3.99              458223             698.775        -1.00206e+07         2.85331e+08
    4.01              457438             697.052         -1.0008e+07          2.8499e+08
    4.03              456650             695.326        -9.99524e+06         2.84648e+08
    4.05              455859             693.597        -9.98246e+06         2.84304e+08
    4.07              455064             691.865        -9.96962e+06         2.83958e+08
    4.09              454267              690.13        -9.95671e+06         2.83611e+08
    4.11              453466             688.392        -9.94374e+06         2.83262e+08
    4.13              452662             686.651         -9.9307e+06         2.82912e+08
    4.15              451855             684.907         -9.9176e+06         2.82561e+08
    4.17              451045             683.161        -9.90443e+06         2.82207e+08
    4.19              450232             681.412        -9.89119e+06         2.81853e+08
    4.21              449415              679.66         -9.8779e+06         2.81497e+08
    4.23              448596             677.906        -9.86453e+06         2.81139e+08
    4.25              447774             676.149         -9.8511e+06          2.8078e+08
    4.27              446948              674.39        -9.83761e+06         2.80419e+08
    4.29              446120             672.629        -9.82405e+06         2.80056e+08
    4.31              445288             670.865        -9.81043e+06         2.79693e+08
    4.33              444454             669.099        -9.79674e+06         2.79327e+08
    4.35              443616             667.331        -9.78299e+06          2.7896e+08
    4.37              442775              665.56        -9.76917e+06         2.78592e+08
    4.39              441932             663.788        -9.75529e+06         2.78222e+08
    4.41              441086             662.013        -9.74134e+06         2.77851e+08
    4.43              440236             660.236        -9.72733e+06         2.77478e+08
    4.45              439384             658.457        -9.71325e+06         2.77104e+08
    4.47              438529             656.677        -9.69911e+06         2.76728e+08
    4.49              437671             654.894        -9.68491e+06          2.7635e+08
    4.51              436810              653.11        -9.67064e+06         2.75971e+08
    4.53              435946             651.324        -9.65631e+06         2.75591e+08
    4.55              435079             649.536        -9.64191e+06         2.75209e+08
    4.57              434210             647.746        -9.62745e+06         2.74826e+08
    4.59              433337             645.955        -9.61292e+06         2.74441e+08
    4.61              432462             644.162        -9.59833e+06         2.74055e+08
    4.63              431584             642.368        -9.58368e+06         2.73667e+08
    4.65              430704             640.573        -9.56896e+06         2.73277e+08
    4.67              429820             638.775        -9.55418e+06         2.72886e+08
    4.69              428934             636.977        -9.53934e+06         2.72494e+08
    4.71              428045             635.177        -9.52443e+06           2.721e+08
    4.73              427153             633.376        -9.50946e+06         2.71705e+08
    4.75              426259             631.573        -9.49442e+06         2.71308e+08
    4.77              425362              629.77        -9.47933e+06          2.7091e+08
    4.79              424462             627.965        -9.46416e+06          2.7051e+08
    4.81              423559             626.159        -9.44894e+06         2.70109e+08
    4.83              422654             624.352        -9.43365e+06         2.69706e+08
    4.85              421746             622.544         -9.4183e+06         2.69301e+08
    4.87              420836             620.735        -9.40289e+06         2.68896e+08
    4.89              419923             618.925        -9.38741e+06         2.68489e+08
    4.91              419008             617.115        -9.37187e+06          2.6808e+08
    4.93              418089             615.303        -9.35627e+06          2.6767e+08
    4.95              417169             613.491         -9.3406e+06         2.67258e+08
    4.97              416246             611.678        -9.32488e+06         2.66845e+08
    4.99              415320             609.864        -9.30909e+06          2.6643e+08
    5.01              414392              608.05        -9.29324e+06         2.66014e+08
    5.03              413461             606.235        -9.27732e+06         2.65597e+08
    5.05              412528             604.419        -9.26135e+06         2.65178e+08
    5.07              411592             602.603        -9.24531e+06         2.64757e+08
    5.09              410654             600.786        -9.22921e+06         2.64335e+08
    5.11              409713             598.969        -9.21305e+06         2.63912e+08
    5.13              408770             597.151        -9.19683e+06         2.63487e+08
    5.15              407825             595.333        -9.18055e+06         2.63061e+08
    5.17              406877             593.515         -9.1642e+06         2.62633e+08
    5.19              405927             591.697         -9.1478e+06         2.62204e+08
    5.21              404975             589.878        -9.13133e+06         2.61773e+08
    5.23              404020             588.059        -9.11481e+06         2.61341e+08
    5.25              403063              586.24        -9.09822e+06         2.60907e+08
    5.27              402104             584.421        -9.08157e+06         2.60472e+08
    5.29              401142             582.601        -9.06487e+06         2.60036e+08
    5.31              400178             580.782         -9.0481e+06         2.59598e+08
    5.33              399212             578.963        -9.03127e+06         2.59159e+08
    5.35              398244             577.143        -9.01438e+06         2.58718e+08
    5.37              397273             575.324        -8.99744e+06         2.58276e+08
    5.39              396301             573.505        -8.98043e+06         2.57832e+08
    5.41              395326             571.686        -8.96336e+06         2.57387e+08
    5.43              394349             569.867        -8.94624e+06          2.5694e+08
    5.45              393370             568.048        -8.92905e+06         2.56492e+08
    5.47              392388              566.23        -8.91181e+06         2.56043e+08
    5.49              391405             564.411        -8.89451e+06         2.55592e+08
    5.51              390420             562.594        -8.87715e+06          2.5514e+08
    5.53              389432             560.776        -8.85973e+06         2.54686e+08
    5.55              388443             558.959        -8.84226e+06         2.54231e+08
    5.57              387451             557.142        -8.82472e+06         2.53775e+08
    5.59              386457             555.326        -8.80713e+06         2.53317e+08
    5.61              385462              553.51        -8.78948e+06         2.52857e+08
    5.63              384464             551.695        -8.77178e+06         2.52397e+08
    5.65              383465             549.881        -8.75402e+06         2.51935e+08
    5.67              382464             548.067         -8.7362e+06         2.51471e+08
    5.69              381461             546.253        -8.71832e+06         2.51006e+08
    5.71              380455              544.44        -8.70039e+06          2.5054e+08
    5.73              379448             542.628         -8.6824e+06         2.50072e+08
    5.75              378440             540.817        -8.66435e+06         2.49603e+08
    5.77              377429             539.007        -8.64625e+06         2.49132e+08
    5.79              376416             537.197         -8.6281e+06          2.4866e+08
    5.81              375402             535.388        -8.60989e+06         2.48187e+08
    5.83              374386              533.58        -8.59162e+06         2.47713e+08
    5.85              373368             531.773         -8.5733e+06         2.47237e+08
    5.87              372349             529.967        -8.55492e+06         2.46759e+08
    5.89              371328             528.161        -8.53649e+06          2.4628e+08
    5.91              370305             526.357        -8.51801e+06           2.458e+08
    5.93              369280             524.554        -8.49947e+06         2.45319e+08
    5.95              368254             522.751        -8.48088e+06         2.44836e+08
    5.97              367226              520.95        -8.46224e+06         2.44352e+08
    5.99              366197              519.15        -8.44354e+06         2.43866e+08
    6.01              365166             517.351        -8.42479e+06         2.43379e+08
    6.03              364134             515.553        -8.40598e+06         2.42891e+08
    6.05              363100             513.757        -8.38713e+06         2.42401e+08
    6.07              362064             511.961        -8.36822e+06          2.4191e+08
    6.09              361027             510.167        -8.34926e+06         2.41418e+08
    6.11              359988             508.374        -8.33025e+06         2.40925e+08
    6.13              358948             506.583        -8.31119e+06          2.4043e+08
    6.15              357907             504.793        -8.29208e+06         2.39933e+08
    6.17              356864             503.004        -8.27292e+06         2.39436e+08
    6.19              355820             501.216         -8.2537e+06         2.38937e+08
    6.21              354774              499.43        -8.23444e+06         2.38437e+08
    6.23              353727             497.646        -8.21513e+06         2.37935e+08
    6.25              352679             495.862        -8.19577e+06         2.37433e+08
    6.27              351629             494.081        -8.17636e+06         2.36929e+08
    6.29              350579             492.301         -8.1569e+06         2.36423e+08
    6.31              349526             490.522        -8.13739e+06         2.35917e+08
    6.33              348473             488.745        -8.11783e+06         2.35409e+08
    6.35              347419              486.97        -8.09823e+06         2.34899e+08
    6.37              346363             485.196        -8.07858e+06         2.34389e+08
    6.39              345306             483.424        -8.05888e+06         2.33877e+08
    6.41              344248             481.653        -8.03914e+06         2.33364e+08
    6.43              343189             479.884        -8.01935e+06          2.3285e+08
    6.45              342128             478.117        -7.99951e+06         2.32335e+08
    6.47              341067             476.352        -7.97963e+06         2.31818e+08
    6.49              340005             474.589         -7.9597e+06           2.313e+08
    6.51              338941             472.827        -7.93972e+06         2.30781e+08
    6.53              337877             471.067        -7.91971e+06          2.3026e+08
    6.55              336811             469.309        -7.89964e+06         2.29739e+08
    6.57              335745             467.553        -7.87954e+06         2.29216e+08
    6.59              334678             465.798        -7.85939e+06         2.28692e+08
    6.61              333610             464.046        -7.83919e+06         2.28167e+08
    6.63              332540             462.296        -7.81896e+06          2.2764e+08
    6.65              331471             460.547        -7.79868e+06         2.27112e+08
    6.67              330400             458.801        -7.77836e+06         2.26584e+08
    6.69              329328             457.056          -7.758e+06         2.26054e+08
    6.71              328256             455.314        -7.73759e+06         2.25522e+08
    6.73              327183             453.573        -7.71715e+06          2.2499e+08
    6.75              326109             451.835        -7.69667e+06         2.24457e+08
    6.77              325034             450.099        -7.67614e+06         2.23922e+08
    6.79              323959             448.365        -7.65558e+06         2.23386e+08
    6.81              322883             446.633        -7.63497e+06         2.22849e+08
    6.83              321806             444.903        -7.61433e+06         2.22311e+08
    6.85              320729             443.175        -7.59365e+06         2.21772e+08
    6.87              319651              441.45        -7.57293e+06         2.21232e+08
    6.89              318572             439.727        -7.55217e+06         2.20691e+08
    6.91              317493             438.006        -7.53138e+06         2.20148e+08
    6.93              316414             436.288        -7.51055e+06         2.19604e+08
    6.95              315334             434.571        -7.48968e+06          2.1906e+08
    6.97              314253             432.857        -7.46877e+06         2.18514e+08
    6.99              313172             431.146        -7.44783e+06         2.17967e+08
    7.01              312091             429.436        -7.42686e+06         2.17419e+08
    7.03              311009             427.729        -7.40585e+06         2.16871e+08
    7.05              309927             426.025        -7.38481e+06         2.16321e+08
    7.07              308844             424.323        -7.36373e+06          2.1577e+08
    7.09              307761             422.623        -7.34262e+06         2.15218e+08
    7.11              306678             420.926        -7.32148e+06         2.14665e+08
    7.13              305595             419.231         -7.3003e+06         2.14111e+08
    7.15              304511             417.539         -7.2791e+06         2.13556e+08
    7.17              303427             415.849        -7.25786e+06         2.12999e+08
    7.19              302343             414.162        -7.23659e+06         2.12442e+08
    7.21              301259             412.478        -7.21529e+06         2.11884e+08
    7.23              300174             410.796        -7.19396e+06         2.11326e+08
    7.25              299090             409.116         -7.1726e+06         2.10766e+08
    7.27              298005             407.439        -7.15121e+06         2.10205e+08
    7.29              296921             405.765        -7.12979e+06         2.09643e+08
    7.31              295836             404.094        -7.10835e+06          2.0908e+08
    7.33              294751             402.425        -7.08687e+06         2.08517e+08
    7.35              293666             400.759        -7.06537e+06         2.07952e+08
    7.37              292582             399.095        -7.04385e+06         2.07387e+08
    7.39              291497             397.435        -7.02229e+06          2.0682e+08
    7.41              290412             395.777        -7.00071e+06         2.06253e+08
    7.43              289328             394.122        -6.97911e+06         2.05685e+08
    7.45              288243             392.469        -6.95748e+06         2.05116e+08
    7.47              287159              390.82        -6.93583e+06         2.04546e+08
    7.49              286075             389.173        -6.91415e+06         2.03976e+08
    7.51              284991             387.529        -6.89246e+06         2.03404e+08
    7.53              283908             385.888        -6.87073e+06         2.02832e+08
    7.55              282825              384.25        -6.84899e+06         2.02259e+08
    7.57              281742             382.615        -6.82722e+06         2.01685e+08
    7.59              280659             380.983        -6.80544e+06          2.0111e+08
    7.61              279576             379.353        -6.78363e+06         2.00535e+08
    7.63              278495             377.727        -6.76181e+06         1.99959e+08
    7.65              277413             376.104        -6.73996e+06         1.99382e+08
    7.67              276332             374.483         -6.7181e+06         1.98804e+08
    7.69              275251             372.866        -6.69621e+06         1.98226e+08
    7.71              274171             371.252        -6.67431e+06         1.97647e+08
    7.73              273091              369.64        -6.65239e+06         1.97067e+08
    7.75              272012             368.032        -6.63046e+06         1.96486e+08
    7.77              270933             366.427        -6.60851e+06         1.95905e+08
    7.79              269855             364.825        -6.58654e+06         1.95323e+08
    7.81              268778             363.226        -6.56456e+06         1.94741e+08
    7.83              267701              361.63        -6.54257e+06         1.94157e+08
    7.85              266625             360.038        -6.52056e+06         1.93574e+08
    7.87              265549             358.448        -6.49854e+06         1.92989e+08
    7.89              264475             356.862         -6.4765e+06         1.92404e+08
    7.91              263401             355.279        -6.45445e+06         1.91818e+08
    7.93              262327             353.699        -6.43239e+06         1.91232e+08
    7.95              261255             352.123        -6.41032e+06         1.90645e+08
    7.97              260183             350.549        -6.38824e+06         1.90058e+08
    7.99              259112             348.979        -6.36615e+06          1.8947e+08
    8.01              258042             347.413        -6.34405e+06         1.88882e+08
    8.03              256973             345.849        -6.32194e+06         1.88293e+08
    8.05              255905             344.289        -6.29983e+06         1.87703e+08
    8.07              254838             342.732         -6.2777e+06         1.87113e+08
    8.09              253772             341.179        -6.25557e+06         1.86523e+08
    8.11              252707             339.629        -6.23344e+06         1.85932e+08
    8.13              251642             338.083        -6.21129e+06         1.85341e+08
    8.15              250579              336.54        -6.18914e+06         1.84749e+08
    8.17              249517                 335        -6.16699e+06         1.84157e+08
    8.19              248456             333.464        -6.14483e+06         1.83564e+08
    8.21              247397             331.931        -6.12267e+06         1.82971e+08
    8.23              246338             330.402        -6.10051e+06         1.82378e+08
    8.25              245280             328.876        -6.07835e+06         1.81784e+08
    8.27              244224             327.354        -6.05618e+06          1.8119e+08
    8.29              243169             325.835        -6.03401e+06         1.80595e+08
    8.31              242115              324.32        -6.01184e+06         1.80001e+08
    8.33              241063             322.809        -5.98967e+06         1.79405e+08
    8.35              240012             321.301        -5.96751e+06          1.7881e+08
    8.37              238962             319.796        -5.94534e+06         1.78214e+08
    8.39              237914             318.296        -5.92318e+06         1.77618e+08
    8.41              236867             316.799        -5.90101e+06         1.77022e+08
    8.43              235821             315.305        -5.87886e+06         1.76426e+08
    8.45              234777             313.816         -5.8567e+06         1.75829e+08
    8.47              233734              312.33        -5.83455e+06         1.75232e+08
    8.49              232693             310.847        -5.81241e+06         1.74635e+08
    8.51              231653             309.369        -5.79027e+06         1.74038e+08
    8.53              230615             307.894        -5.76814e+06          1.7344e+08
    8.55              229578             306.423        -5.74601e+06         1.72843e+08
    8.57              228543             304.956        -5.72389e+06         1.72245e+08
    8.59              227510             303.493        -5.70178e+06         1.71647e+08
    8.61              226478             302.033        -5.67968e+06         1.71049e+08
    8.63              225448             300.577        -5.65759e+06         1.70451e+08
    8.65              224420             299.125        -5.63551e+06         1.69853e+08
    8.67              223393             297.677        -5.61343e+06         1.69254e+08
    8.69              222368             296.233        -5.59137e+06         1.68656e+08
    8.71              221345             294.793        -5.56933e+06         1.68058e+08
    8.73              220324             293.357        -5.54729e+06          1.6746e+08
    8.75              219304             291.924        -5.52527e+06         1.66861e+08
    8.77              218286             290.496        -5.50326e+06         1.66263e+08
    8.79              217271             289.071        -5.48126e+06         1.65665e+08
    8.81              216257             287.651        -5.45928e+06         1.65067e+08
    8.83              215245             286.235        -5.43732e+06         1.64468e+08
    8.85              214235             284.822        -5.41537e+06          1.6387e+08
    8.87              213226             283.414        -5.39344e+06         1.63272e+08
    8.89              212220              282.01        -5.37152e+06         1.62674e+08
    8.91              211216             280.609        -5.34963e+06         1.62077e+08
    8.93              210214             279.213        -5.32775e+06         1.61479e+08
    8.95              209214             277.821        -5.30589e+06         1.60882e+08
    8.97              208216             276.433        -5.28405e+06         1.60284e+08
    8.99              207220             275.049        -5.26223e+06         1.59687e+08
    9.01              206227              273.67        -5.24044e+06          1.5909e+08
    9.03              205235             272.294        -5.21866e+06         1.58494e+08
    9.05              204246             270.923        -5.19691e+06         1.57897e+08
    9.07              203259             269.556        -5.17518e+06         1.57301e+08
    9.09              202274             268.193        -5.15347e+06         1.56705e+08
    9.11              201291             266.835        -5.13179e+06          1.5611e+08
    9.13              200311              265.48        -5.11013e+06         1.55515e+08
    9.15              199332              264.13         -5.0885e+06          1.5492e+08
    9.17              198357             262.785         -5.0669e+06         1.54325e+08
    9.19              197383             261.443        -5.04532e+06         1.53731e+08
    9.21              196412             260.106        -5.02376e+06         1.53137e+08
    9.23              195443             258.773        -5.00224e+06         1.52543e+08
    9.25              194477             257.445        -4.98074e+06          1.5195e+08
    9.27              193513             256.121        -4.95928e+06         1.51357e+08
    9.29              192552             254.801        -4.93784e+06         1.50765e+08
    9.31              191593             253.486        -4.91643e+06         1.50173e+08
    9.33              190636             252.175        -4.89505e+06         1.49582e+08
    9.35              189682             250.869        -4.87371e+06         1.48991e+08
    9.37              188730             249.567         -4.8524e+06         1.48401e+08
    9.39              187782             248.269        -4.83111e+06         1.47811e+08
    9.41              186835             246.976        -4.80987e+06         1.47221e+08
    9.43              185891             245.688        -4.78865e+06         1.46633e+08
    9.45              184950             244.404        -4.76747e+06         1.46044e+08
    9.47              184012             243.125        -4.74633e+06         1.45457e+08
    9.49              183076              241.85        -4.72522e+06          1.4487e+08
    9.51              182143             240.579        -4.70415e+06         1.44283e+08
    9.53              181212             239.314        -4.68311e+06         1.43698e+08
    9.55              180284             238.053        -4.66211e+06         1.43112e+08
    9.57              179359             236.796        -4.64115e+06         1.42528e+08
    9.59              178437             235.544        -4.62023e+06         1.41944e+08
    9.61              177517             234.297        -4.59934e+06         1.41361e+08
    9.63              176601             233.054         -4.5785e+06         1.40779e+08
    9.65              175687             231.817        -4.55769e+06         1.40197e+08
    9.67              174776             230.583        -4.53693e+06         1.39616e+08
    9.69              173867             229.355        -4.51621e+06         1.39036e+08
    9.71              172962             228.131        -4.49553e+06         1.38457e+08
    9.73              172059             226.912        -4.47489e+06         1.37878e+08
    9.75              171160             225.698        -4.45429e+06           1.373e+08
    9.77              170263             224.488        -4.43374e+06         1.36723e+08
    9.79              169369             223.283        -4.41323e+06         1.36147e+08
    9.81              168479             222.083        -4.39277e+06         1.35572e+08
    9.83              167591             220.888        -4.37235e+06         1.34997e+08
    9.85              166706             219.698        -4.35198e+06         1.34424e+08
    9.87              165824             218.512        -4.33165e+06         1.33851e+08
    9.89              164945             217.332        -4.31137e+06          1.3328e+08
    9.91              164070             216.156        -4.29114e+06         1.32709e+08
    9.93              163197             214.985        -4.27095e+06         1.32139e+08
    9.95              162327             213.819        -4.25081e+06          1.3157e+08
    9.97              161461             212.658        -4.23072e+06         1.31003e+08
    9.99              160597             211.502        -4.21068e+06         1.30436e+08
   10.01              159737             210.351        -4.19069e+06          1.2987e+08
   10.03              158880             209.204        -4.17076e+06         1.29305e+08
   10.05              158026             208.063        -4.15087e+06         1.28741e+08
   10.07              157175             206.927        -4.13103e+06         1.28179e+08
   10.09              156327             205.795        -4.11124e+06         1.27617e+08
   10.11              155483             204.669        -4.09151e+06         1.27056e+08
   10.13              154641             203.548        -4.07183e+06         1.26497e+08
   10.15              153803             202.431         -4.0522e+06         1.25939e+08
   10.17              152969              201.32        -4.03263e+06         1.25382e+08
   10.19              152137             200.214        -4.01311e+06         1.24825e+08
   10.21              151309             199.113        -3.99364e+06         1.24271e+08
   10.23              150484             198.017        -3.97423e+06         1.23717e+08
   10.25              149662             196.926        -3.95488e+06         1.23164e+08
   10.27              148844              195.84        -3.93558e+06         1.22613e+08
   10.29              148028             194.759        -3.91634e+06         1.22063e+08
   10.31              147217             193.684        -3.89715e+06         1.21514e+08
   10.33              146408             192.613        -3.87802e+06         1.20967e+08
   10.35              145603             191.548        -3.85895e+06          1.2042e+08
   10.37              144802             190.488        -3.83994e+06         1.19875e+08
   10.39              144003             189.433        -3.82099e+06         1.19332e+08
   10.41              143208             188.383         -3.8021e+06         1.18789e+08
   10.43              142417             187.338        -3.78326e+06         1.18248e+08
   10.45              141629             186.299        -3.76449e+06         1.17709e+08
   10.47              140844             185.265        -3.74577e+06          1.1717e+08
   10.49              140063             184.236        -3.72712e+06         1.16633e+08
   10.51              139285             183.212        -3.70853e+06         1.16097e+08
   10.53              138511             182.194           -3.69e+06         1.15563e+08
   10.55              137740             181.181        -3.67153e+06          1.1503e+08
   10.57              136973             180.173        -3.65313e+06         1.14499e+08
   10.59              136209              179.17        -3.63478e+06         1.13969e+08
   10.61              135448             178.173         -3.6165e+06          1.1344e+08
   10.63              134691             177.181        -3.59829e+06         1.12913e+08
   10.65              133938             176.194        -3.58013e+06         1.12388e+08
   10.67              133188             175.213        -3.56205e+06         1.11863e+08
   10.69              132442             174.237        -3.54402e+06         1.11341e+08
   10.71              131699             173.266        -3.52607e+06          1.1082e+08
   10.73              130960             172.301        -3.50817e+06           1.103e+08
   10.75              130224             171.341        -3.49035e+06         1.09782e+08
   10.77              129492             170.386        -3.47259e+06         1.09265e+08
   10.79              128764             169.437        -3.45489e+06          1.0875e+08
   10.81              128039             168.493        -3.43726e+06         1.08237e+08
   10.83              127317             167.555         -3.4197e+06         1.07725e+08
   10.85              126600             166.622        -3.40221e+06         1.07215e+08
   10.87              125886             165.694        -3.38479e+06         1.06706e+08
   10.89              125175             164.772        -3.36743e+06         1.06199e+08
   10.91              124468             163.855        -3.35014e+06         1.05694e+08
   10.93              123765             162.944        -3.33292e+06          1.0519e+08
   10.95              123065             162.038        -3.31577e+06         1.04688e+08
   10.97              122369             161.137        -3.29869e+06         1.04187e+08
   10.99              121677             160.242        -3.28168e+06         1.03689e+08
   11.01              120988             159.352        -3.26473e+06         1.03191e+08
   11.03              120303             158.468        -3.24786e+06         1.02696e+08
   11.05              119621             157.589        -3.23106e+06         1.02202e+08
   11.07              118943             156.716        -3.21433e+06          1.0171e+08
   11.09              118269             155.848        -3.19767e+06          1.0122e+08
   11.11              117599             154.986        -3.18108e+06         1.00731e+08
   11.13              116932             154.129        -3.16456e+06         1.00245e+08
   11.15              116269             153.278        -3.14812e+06         9.97597e+07
   11.17              115609             152.432        -3.13175e+06         9.92764e+07
   11.19              114953             151.591        -3.11544e+06         9.87949e+07
   11.21              114301             150.756        -3.09922e+06         9.83151e+07
   11.23              113653             149.927        -3.08306e+06         9.78372e+07
   11.25              113008             149.103        -3.06698e+06         9.73611e+07
   11.27              112367             148.285        -3.05097e+06         9.68868e+07
   11.29              111729             147.472        -3.03503e+06         9.64143e+07
   11.31              111096             146.664        -3.01917e+06         9.59436e+07
   11.33              110466             145.862        -3.00338e+06         9.54747e+07
   11.35              109839             145.066        -2.98766e+06         9.50077e+07
   11.37              109217             144.275        -2.97202e+06         9.45426e+07
   11.39              108598              143.49        -2.95645e+06         9.40793e+07
   11.41              107982              142.71        -2.94096e+06         9.36179e+07
   11.43              107371             141.936        -2.92554e+06         9.31584e+07
   11.45              106763             141.167         -2.9102e+06         9.27007e+07
   11.47              106159             140.404        -2.89493e+06         9.22449e+07
   11.49              105558             139.646        -2.87973e+06         9.17911e+07
   11.51              104961             138.893        -2.86461e+06         9.13391e+07
   11.53              104368             138.147        -2.84957e+06         9.08891e+07
   11.55              103779             137.405         -2.8346e+06         9.04409e+07
   11.57              103193              136.67        -2.81971e+06         8.99947e+07
   11.59              102611             135.939         -2.8049e+06         8.95505e+07
   11.61              102033             135.215        -2.79016e+06         8.91082e+07
   11.63              101458             134.496        -2.77549e+06         8.86678e+07
   11.65              100887             133.782         -2.7609e+06         8.82294e+07
   11.67              100320             133.074        -2.74639e+06         8.77929e+07
   11.69             99755.9             132.371        -2.73196e+06         8.73584e+07
   11.71             99195.9             131.674         -2.7176e+06         8.69259e+07
   11.73             98639.6             130.982        -2.70332e+06         8.64953e+07
   11.75               98087             130.296        -2.68911e+06         8.60668e+07
   11.77               97538             129.615        -2.67498e+06         8.56402e+07
   11.79             96992.7              128.94        -2.66093e+06         8.52156e+07
   11.81               96451              128.27        -2.64695e+06          8.4793e+07
   11.83               95913             127.605        -2.63305e+06         8.43724e+07
   11.85             95378.6             126.946        -2.61923e+06         8.39538e+07
   11.87             94847.9             126.293        -2.60549e+06         8.35372e+07
   11.89             94320.8             125.645        -2.59182e+06         8.31227e+07
   11.91             93797.4             125.002        -2.57823e+06         8.27102e+07
   11.93             93277.6             124.365        -2.56472e+06         8.22996e+07
   11.95             92761.4             123.733        -2.55128e+06         8.18912e+07
   11.97             92248.8             123.107        -2.53792e+06         8.14847e+07
   11.99             91739.9             122.486        -2.52464e+06         8.10803e+07
   12.01             91234.5             121.871        -2.51143e+06         8.06779e+07
   12.03             90732.7             121.261        -2.49831e+06         8.02776e+07
   12.05             90234.6             120.656        -2.48525e+06         7.98793e+07
   12.07               89740             120.057        -2.47228e+06          7.9483e+07
   12.09               89249             119.463        -2.45938e+06         7.90889e+07
   12.11             88761.6             118.874        -2.44657e+06         7.86967e+07
   12.13             88277.8             118.291        -2.43382e+06         7.83066e+07
   12.15             87797.5             117.713        -2.42116e+06         7.79186e+07
   12.17             87320.7              117.14        -2.40857e+06         7.75327e+07
   12.19             86847.5             116.573        -2.39606e+06         7.71488e+07
   12.21             86377.9             116.011        -2.38363e+06         7.67669e+07
   12.23             85911.8             115.454        -2.37127e+06         7.63872e+07
   12.25             85449.2             114.902        -2.35899e+06         7.60095e+07
   12.27             84990.1             114.356        -2.34679e+06         7.56338e+07
   12.29             84534.5             113.815        -2.33466e+06         7.52603e+07
   12.31             84082.4              113.28        -2.32261e+06         7.48888e+07
   12.33             83633.8             112.749        -2.31064e+06         7.45194e+07
   12.35             83188.7             112.224        -2.29874e+06         7.41521e+07
   12.37               82747             111.704        -2.28692e+06         7.37868e+07
   12.39             82308.8             111.189        -2.27518e+06         7.34236e+07
   12.41             81874.1             110.679        -2.26351e+06         7.30625e+07
   12.43             81442.8             110.175        -2.25192e+06         7.27035e+07
   12.45             81014.9             109.675        -2.24041e+06         7.23465e+07
   12.47             80590.5             109.181        -2.22897e+06         7.19916e+07
   12.49             80169.4             108.691         -2.2176e+06         7.16388e+07
   12.51             79751.8             108.207        -2.20632e+06         7.12881e+07
   12.53             79337.5             107.728        -2.19511e+06         7.09395e+07
   12.55             78926.6             107.254        -2.18397e+06         7.05929e+07
   12.57             78519.1             106.785        -2.17291e+06         7.02484e+07
   12.59               78115             106.321        -2.16193e+06          6.9906e+07
   12.61             77714.2             105.862        -2.15102e+06         6.95656e+07
   12.63             77316.7             105.408        -2.14018e+06         6.92273e+07
   12.65             76922.6             104.959        -2.12942e+06         6.88911e+07
   12.67             76531.7             104.515        -2.11874e+06          6.8557e+07
   12.69             76144.2             104.076        -2.10813e+06         6.82249e+07
   12.71             75759.9             103.641        -2.09759e+06         6.78949e+07
   12.73               75379             103.212        -2.08713e+06         6.75669e+07
   12.75             75001.2             102.788        -2.07674e+06          6.7241e+07
   12.77             74626.8             102.368        -2.06643e+06         6.69172e+07
   12.79             74255.6             101.953        -2.05619e+06         6.65954e+07
   12.81             73887.6             101.543        -2.04602e+06         6.62757e+07
   12.83             73522.8             101.137        -2.03593e+06         6.59581e+07
   12.85             73161.2             100.737        -2.02591e+06         6.56424e+07
   12.87             72802.8             100.341        -2.01596e+06         6.53289e+07
   12.89             72447.6             99.9499        -2.00609e+06         6.50173e+07
   12.91             72095.5             99.5634        -1.99628e+06         6.47079e+07
   12.93             71746.6             99.1816        -1.98655e+06         6.44004e+07
   12.95             71400.8             98.8044         -1.9769e+06          6.4095e+07
   12.97             71058.2             98.4319        -1.96731e+06         6.37916e+07
   12.99             70718.6             98.0639         -1.9578e+06         6.34903e+07
   13.01             70382.2             97.7005        -1.94836e+06         6.31909e+07
   13.03             70048.8             97.3417        -1.93899e+06         6.28936e+07
   13.05             69718.5             96.9874        -1.92969e+06         6.25983e+07
   13.07             69391.2             96.6375        -1.92046e+06          6.2305e+07
   13.09               69067             96.2921         -1.9113e+06         6.20138e+07
   13.11             68745.8             95.9512        -1.90221e+06         6.17245e+07
   13.13             68427.6             95.6146         -1.8932e+06         6.14372e+07
   13.15             68112.4             95.2825        -1.88425e+06         6.11519e+07
   13.17             67800.1             94.9547        -1.87537e+06         6.08686e+07
   13.19             67490.9             94.6313        -1.86656e+06         6.05873e+07
   13.21             67184.6             94.3121        -1.85782e+06          6.0308e+07
   13.23             66881.2             93.9973        -1.84915e+06         6.00306e+07
   13.25             66580.7             93.6867        -1.84055e+06         5.97553e+07
   13.27             66283.1             93.3803        -1.83202e+06         5.94818e+07
   13.29             65988.5             93.0781        -1.82355e+06         5.92104e+07
   13.31             65696.7             92.7801        -1.81516e+06         5.89409e+07
   13.33             65407.7             92.4862        -1.80683e+06         5.86733e+07
   13.35             65121.6             92.1965        -1.79856e+06         5.84077e+07
   13.37             64838.3             91.9108        -1.79037e+06          5.8144e+07
   13.39             64557.9             91.6292        -1.78224e+06         5.78823e+07
   13.41             64280.2             91.3516        -1.77418e+06         5.76225e+07
   13.43             64005.3              91.078        -1.76618e+06         5.73645e+07
   13.45             63733.2             90.8083        -1.75825e+06         5.71086e+07
   13.47             63463.8             90.5427        -1.75039e+06         5.68545e+07
   13.49             63197.1             90.2809        -1.74259e+06         5.66023e+07
   13.51             62933.2              90.023        -1.73485e+06          5.6352e+07
   13.53             62671.9             89.7689        -1.72718e+06         5.61036e+07
   13.55             62413.3             89.5187        -1.71958e+06         5.58571e+07
   13.57             62157.4             89.2722        -1.71203e+06         5.56124e+07
   13.59             61904.2             89.0295        -1.70456e+06         5.53696e+07
   13.61             61653.6             88.7906        -1.69714e+06         5.51287e+07
   13.63             61405.5             88.5553        -1.68979e+06         5.48896e+07
   13.65             61160.1             88.3237         -1.6825e+06         5.46524e+07
   13.67             60917.3             88.0958        -1.67528e+06          5.4417e+07
   13.69               60677             87.8714        -1.66811e+06         5.41834e+07
   13.71             60439.3             87.6506        -1.66101e+06         5.39517e+07
   13.73             60204.1             87.4334        -1.65397e+06         5.37218e+07
   13.75             59971.5             87.2196        -1.64699e+06         5.34937e+07
   13.77             59741.3             87.0094        -1.64007e+06         5.32674e+07
   13.79             59513.6             86.8026        -1.63321e+06         5.30429e+07
   13.81             59288.4             86.5992        -1.62642e+06         5.28201e+07
   13.83             59065.6             86.3992        -1.61968e+06         5.25992e+07
   13.85             58845.3             86.2025          -1.613e+06           5.238e+07
   13.87             58627.3             86.0092        -1.60638e+06         5.21626e+07
   13.89             58411.8             85.8192        -1.59982e+06         5.19469e+07
   13.91             58198.6             85.6324        -1.59332e+06          5.1733e+07
   13.93             57987.8             85.4488        -1.58688e+06         5.15208e+07
   13.95             57779.4             85.2685        -1.58049e+06         5.13104e+07
   13.97             57573.2             85.0913        -1.57416e+06         5.11017e+07
   13.99             57369.4             84.9172        -1.56789e+06         5.08947e+07
   14.01             57167.9             84.7462        -1.56168e+06         5.06893e+07
   14.03             56968.6             84.5783        -1.55552e+06         5.04857e+07
   14.05             56771.6             84.4135        -1.54942e+06         5.02838e+07
   14.07             56576.8             84.2516        -1.54338e+06         5.00836e+07
   14.09             56384.3             84.0927        -1.53739e+06          4.9885e+07
   14.11               56194             83.9368        -1.53145e+06         4.96881e+07
   14.13             56005.8             83.7837        -1.52557e+06         4.94928e+07
   14.15             55819.9             83.6336        -1.51974e+06         4.92992e+07
   14.17               55636             83.4862        -1.51397e+06         4.91072e+07
   14.19             55454.3             83.3417        -1.50825e+06         4.89169e+07
   14.21             55274.8                83.2        -1.50259e+06         4.87281e+07
   14.23             55097.3              83.061        -1.49698e+06          4.8541e+07
   14.25             54921.9             82.9247        -1.49142e+06         4.83555e+07
   14.27             54748.6             82.7912        -1.48591e+06         4.81715e+07
   14.29             54577.3             82.6602        -1.48045e+06         4.79892e+07
   14.31             54408.1             82.5319        -1.47505e+06         4.78084e+07
   14.33             54240.8             82.4062         -1.4697e+06         4.76291e+07
   14.35             54075.6             82.2831         -1.4644e+06         4.74515e+07
   14.37             53912.4             82.1625        -1.45914e+06         4.72753e+07
   14.39             53751.1             82.0443        -1.45394e+06         4.71007e+07
   14.41             53591.7             81.9287        -1.44879e+06         4.69277e+07
   14.43             53434.3             81.8155        -1.44369e+06         4.67561e+07
   14.45             53278.8             81.7047        -1.43863e+06         4.65861e+07
   14.47             53125.1             81.5962        -1.43363e+06         4.64175e+07
   14.49             52973.4             81.4901        -1.42867e+06         4.62505e+07
   14.51             52823.5             81.3864        -1.42376e+06         4.60849e+07
   14.53             52675.4             81.2849         -1.4189e+06         4.59208e+07
   14.55             52529.2             81.1856        -1.41409e+06         4.57581e+07
   14.57             52384.8             81.0886        -1.40932e+06         4.55969e+07
   14.59             52242.1             80.9938         -1.4046e+06         4.54371e+07
   14.61             52101.3             80.9011        -1.39992e+06         4.52788e+07
   14.63             51962.2             80.8106        -1.39529e+06         4.51219e+07
   14.65             51824.8             80.7222        -1.39071e+06         4.49664e+07
   14.67             51689.1             80.6358        -1.38617e+06         4.48123e+07
   14.69             51555.2             80.5515        -1.38167e+06         4.46596e+07
   14.71             51422.9             80.4693        -1.37722e+06         4.45082e+07
   14.73             51292.3              80.389        -1.37282e+06         4.43583e+07
   14.75             51163.3             80.3106        -1.36845e+06         4.42097e+07
   14.77               51036             80.2342        -1.36413e+06         4.40624e+07
   14.79             50910.3             80.1597        -1.35985e+06         4.39165e+07
   14.81             50786.2             80.0871        -1.35562e+06          4.3772e+07
   14.83             50663.7             80.0163        -1.35143e+06         4.36287e+07
   14.85             50542.7             79.9473        -1.34728e+06         4.34868e+07
   14.87             50423.3             79.8802        -1.34317e+06         4.33462e+07
   14.89             50305.5             79.8148         -1.3391e+06         4.32068e+07
   14.91             50189.1             79.7511        -1.33507e+06         4.30688e+07
   14.93             50074.3             79.6891        -1.33108e+06          4.2932e+07
   14.95             49960.9             79.6288        -1.32713e+06         4.27965e+07
   14.97               49849             79.5702        -1.32322e+06         4.26622e+07
   14.99             49738.5             79.5131        -1.31935e+06         4.25292e+07
   15.01             49629.5             79.4577        -1.31552e+06         4.23975e+07
   15.03             49521.9             79.4039        -1.31173e+06         4.22669e+07
   15.05             49415.7             79.3516        -1.30797e+06         4.21376e+07
   15.07             49310.9             79.3008        -1.30426e+06         4.20094e+07
   15.09             49207.5             79.2515        -1.30058e+06         4.18825e+07
   15.11             49105.4             79.2037        -1.29693e+06         4.17568e+07
   15.13             49004.7             79.1574        -1.29333e+06         4.16322e+07
   15.15             48905.3             79.1124        -1.28976e+06         4.15088e+07
   15.17             48807.1             79.0688        -1.28622e+06         4.13866e+07
   15.19             48710.3             79.0267        -1.28273e+06         4.12655e+07
   15.21             48614.8             78.9858        -1.27926e+06         4.11455e+07
   15.23             48520.5             78.9463        -1.27584e+06         4.10267e+07
   15.25             48427.4              78.908        -1.27244e+06          4.0909e+07
   15.27             48335.6             78.8711        -1.26908e+06         4.07924e+07
   15.29               48245             78.8354        -1.26576e+06         4.06769e+07
   15.31             48155.6             78.8009        -1.26247e+06         4.05624e+07
   15.33             48067.3             78.7676        -1.25921e+06         4.04491e+07
   15.35             47980.3             78.7354        -1.25598e+06         4.03369e+07
   15.37             47894.4             78.7045        -1.25279e+06         4.02257e+07
   15.39             47809.6             78.6746        -1.24963e+06         4.01155e+07
   15.41             47725.9             78.6459         -1.2465e+06         4.00064e+07
   15.43             47643.4             78.6182        -1.24341e+06         3.98983e+07
   15.45             47561.9             78.5916        -1.24034e+06         3.97913e+07
   15.47             47481.6             78.5661        -1.23731e+06         3.96853e+07
   15.49             47402.2             78.5415         -1.2343e+06         3.95802e+07
   15.51               47324              78.518        -1.23133e+06         3.94762e+07
   15.53             47246.7             78.4954        -1.22838e+06         3.93732e+07
   15.55             47170.5             78.4738        -1.22547e+06         3.92711e+07
   15.57             47095.3             78.4531        -1.22258e+06           3.917e+07
   15.59             47021.1             78.4333        -1.21973e+06         3.90698e+07
   15.61             46947.8             78.4144         -1.2169e+06         3.89707e+07
   15.63             46875.6             78.3963         -1.2141e+06         3.88724e+07
   15.65             46804.2             78.3791        -1.21133e+06         3.87751e+07
   15.67             46733.8             78.3628        -1.20858e+06         3.86787e+07
   15.69             46664.3             78.3472        -1.20587e+06         3.85832e+07
   15.71             46595.7             78.3324        -1.20318e+06         3.84886e+07
   15.73             46528.1             78.3184        -1.20052e+06         3.83949e+07
   15.75             46461.3             78.3051        -1.19788e+06         3.83022e+07
   15.77             46395.3             78.2926        -1.19527e+06         3.82102e+07
   15.79             46330.2             78.2807        -1.19269e+06         3.81192e+07
   15.81               46266             78.2696        -1.19013e+06          3.8029e+07
   15.83             46202.5             78.2591        -1.18759e+06         3.79397e+07
   15.85             46139.9             78.2492        -1.18509e+06         3.78512e+07
   15.87             46078.1               78.24         -1.1826e+06         3.77635e+07
   15.89             46017.1             78.2314        -1.18014e+06         3.76767e+07
   15.91             45956.8             78.2234        -1.17771e+06         3.75907e+07
   15.93             45897.3             78.2159         -1.1753e+06         3.75055e+07
   15.95             45838.6              78.209        -1.17291e+06         3.74211e+07
   15.97             45780.6             78.2027        -1.17054e+06         3.73375e+07
   15.99             45723.3             78.1968         -1.1682e+06         3.72546e+07
   16.01             45666.7             78.1915        -1.16588e+06         3.71726e+07
   16.03             45610.8             78.1866        -1.16359e+06         3.70913e+07
   16.05             45555.7             78.1823        -1.16131e+06         3.70108e+07
   16.07             45501.1             78.1783        -1.15906e+06          3.6931e+07
   16.09             45447.3             78.1748        -1.15683e+06          3.6852e+07
   16.11             45394.1             78.1718        -1.15462e+06         3.67737e+07
   16.13             45341.5             78.1691        -1.15243e+06         3.66961e+07
   16.15             45289.6             78.1668        -1.15026e+06         3.66193e+07
   16.17             45238.3             78.1648        -1.14812e+06         3.65432e+07
   16.19             45187.5             78.1632        -1.14599e+06         3.64677e+07
   16.21             45137.4              78.162        -1.14388e+06          3.6393e+07
   16.23             45087.9             78.1611        -1.14179e+06         3.63189e+07
   16.25             45038.9             78.1604        -1.13973e+06         3.62456e+07
   16.27             44990.5             78.1601        -1.13768e+06         3.61729e+07
   16.29             44942.6               78.16        -1.13565e+06         3.61009e+07
   16.31             44895.3             78.1602        -1.13364e+06         3.60295e+07
   16.33             44848.5             78.1606        -1.13165e+06         3.59588e+07
   16.35             44802.2             78.1613        -1.12967e+06         3.58887e+07
   16.37             44756.4             78.1621        -1.12772e+06         3.58192e+07
   16.39             44711.1             78.1632        -1.12578e+06         3.57504e+07
   16.41             44666.3             78.1644        -1.12386e+06         3.56822e+07
   16.43               44622             78.1658        -1.12195e+06         3.56147e+07
   16.45             44578.1             78.1674        -1.12007e+06         3.55477e+07
   16.47             44534.7             78.1691         -1.1182e+06         3.54813e+07
   16.49             44491.7             78.1709        -1.11634e+06         3.54155e+07
   16.51             44449.2             78.1728        -1.11451e+06         3.53504e+07
   16.53             44407.1             78.1749        -1.11269e+06         3.52857e+07
   16.55             44365.4              78.177        -1.11088e+06         3.52217e+07
   16.57             44324.1             78.1792        -1.10909e+06         3.51582e+07
   16.59             44283.2             78.1814        -1.10732e+06         3.50953e+07
   16.61             44242.7             78.1837        -1.10556e+06          3.5033e+07
   16.63             44202.6              78.186        -1.10382e+06         3.49712e+07
   16.65             44162.8             78.1883        -1.10209e+06         3.49099e+07
   16.67             44123.4             78.1907        -1.10038e+06         3.48491e+07
   16.69             44084.4              78.193        -1.09868e+06         3.47889e+07
   16.71             44045.6             78.1953        -1.09699e+06         3.47292e+07
   16.73             44007.3             78.1976        -1.09532e+06         3.46701e+07
   16.75             43969.2             78.1998        -1.09367e+06         3.46114e+07
   16.77             43931.5              78.202        -1.09202e+06         3.45532e+07
   16.79               43894             78.2041        -1.09039e+06         3.44955e+07
   16.81             43856.9             78.2061        -1.08878e+06         3.44384e+07
   16.83             43820.1              78.208        -1.08718e+06         3.43817e+07
   16.85             43783.5             78.2098        -1.08559e+06         3.43254e+07
   16.87             43747.2             78.2115        -1.08401e+06         3.42697e+07
   16.89             43711.2             78.2131        -1.08244e+06         3.42144e+07
   16.91             43675.4             78.2146        -1.08089e+06         3.41596e+07
   16.93             43639.9             78.2158        -1.07935e+06         3.41052e+07
   16.95             43604.6              78.217        -1.07782e+06         3.40513e+07
   16.97             43569.6             78.2179         -1.0763e+06         3.39978e+07
   16.99             43534.8             78.2187         -1.0748e+06         3.39448e+07
   17.01             43500.2             78.2193        -1.07331e+06         3.38922e+07
   17.03             43465.8             78.2196        -1.07182e+06           3.384e+07
   17.05             43431.7             78.2198        -1.07035e+06         3.37883e+07
   17.07             43397.7             78.2197        -1.06889e+06          3.3737e+07
   17.09             43363.9             78.2194        -1.06744e+06          3.3686e+07
   17.11             43330.4             78.2189        -1.06601e+06         3.36355e+07
   17.13               43297             78.2181        -1.06458e+06         3.35854e+07
   17.15             43263.7              78.217        -1.06316e+06         3.35357e+07
   17.17             43230.6             78.2156        -1.06175e+06         3.34864e+07
   17.19             43197.7              78.214        -1.06035e+06         3.34375e+07
   17.21               43165             78.2121        -1.05897e+06         3.33889e+07
   17.23             43132.4             78.2099        -1.05759e+06         3.33407e+07
   17.25             43099.9             78.2073        -1.05622e+06         3.32929e+07
   17.27             43067.6             78.2045        -1.05486e+06         3.32455e+07
   17.29             43035.4             78.2013        -1.05351e+06         3.31985e+07
   17.31             43003.3             78.1978        -1.05217e+06         3.31518e+07
   17.33             42971.3             78.1939        -1.05084e+06         3.31054e+07
   17.35             42939.5             78.1896        -1.04952e+06         3.30594e+07
   17.37             42907.7              78.185        -1.04821e+06         3.30138e+07
   17.39             42876.1             78.1801         -1.0469e+06         3.29685e+07
   17.41             42844.5             78.1747        -1.04561e+06         3.29235e+07
   17.43             42813.1              78.169        -1.04432e+06         3.28789e+07
   17.45             42781.7             78.1628        -1.04304e+06         3.28346e+07
   17.47             42750.4             78.1563        -1.04177e+06         3.27906e+07
   17.49             42719.2             78.1493        -1.04051e+06         3.27469e+07
   17.51               42688             78.1419        -1.03926e+06         3.27036e+07
   17.53               42657             78.1341        -1.03801e+06         3.26606e+07
   17.55             42625.9             78.1259        -1.03677e+06         3.26179e+07
   17.57               42595             78.1172        -1.03554e+06         3.25755e+07
   17.59               42564              78.108        -1.03431e+06         3.25334e+07
   17.61             42533.2             78.0984         -1.0331e+06         3.24916e+07
   17.63             42502.3             78.0883        -1.03189e+06         3.24501e+07
   17.65             42471.5             78.0778        -1.03069e+06         3.24089e+07
   17.67             42440.8             78.0668        -1.02949e+06          3.2368e+07
   17.69             42410.1             78.0552         -1.0283e+06         3.23273e+07
   17.71             42379.3             78.0432        -1.02712e+06          3.2287e+07
   17.73             42348.7             78.0307        -1.02595e+06         3.22469e+07
   17.75               42318             78.0177        -1.02478e+06         3.22071e+07
   17.77             42287.3             78.0042        -1.02362e+06         3.21676e+07
   17.79             42256.7             77.9902        -1.02247e+06         3.21283e+07
   17.81             42226.1             77.9756        -1.02132e+06         3.20893e+07
   17.83             42195.4             77.9605        -1.02018e+06         3.20506e+07
   17.85             42164.8             77.9449        -1.01904e+06         3.20122e+07
   17.87             42134.2             77.9287        -1.01791e+06          3.1974e+07
   17.89             42103.5              77.912        -1.01679e+06          3.1936e+07
   17.91             42072.9             77.8947        -1.01567e+06         3.18983e+07
   17.93             42042.2             77.8769        -1.01456e+06         3.18609e+07
   17.95             42011.5             77.8585        -1.01346e+06         3.18237e+07
   17.97             41980.8             77.8395        -1.01236e+06         3.17867e+07
   17.99             41950.1               77.82        -1.01126e+06           3.175e+07
   18.01             41919.3             77.7999        -1.01018e+06         3.17135e+07
   18.03             41888.5             77.7792        -1.00909e+06         3.16773e+07
   18.05             41857.7             77.7579        -1.00802e+06         3.16413e+07
   18.07             41826.8              77.736        -1.00695e+06         3.16055e+07
   18.09               41796             77.7135        -1.00588e+06           3.157e+07
   18.11               41765             77.6904        -1.00482e+06         3.15347e+07
   18.13             41734.1             77.6668        -1.00376e+06         3.14996e+07
   18.15             41703.1             77.6425        -1.00271e+06         3.14647e+07
   18.17               41672             77.6175        -1.00167e+06         3.14301e+07
   18.19             41640.9              77.592        -1.00063e+06         3.13956e+07
   18.21             41609.7             77.5659             -999596         3.13614e+07
   18.23             41578.5             77.5391             -998566         3.13274e+07
   18.25             41547.3             77.5117             -997541         3.12936e+07
   18.27               41516             77.4836             -996521           3.126e+07
   18.29             41484.6             77.4549             -995506         3.12267e+07
   18.31             41453.1             77.4256             -994495         3.11935e+07
   18.33             41421.6             77.3957             -993490         3.11605e+07
   18.35             41390.1              77.365             -992488         3.11278e+07
   18.37             41358.5             77.3338             -991492         3.10952e+07
   18.39             41326.8             77.3019             -990500         3.10628e+07
   18.41               41295             77.2693             -989513         3.10307e+07
   18.43             41263.2             77.2361             -988530         3.09987e+07
   18.45             41231.3             77.2022             -987552         3.09669e+07
   18.47             41199.3             77.1676             -986578         3.09353e+07
   18.49             41167.2             77.1324             -985608         3.09039e+07
   18.51             41135.1             77.0965             -984643         3.08727e+07
   18.53             41102.9             77.0599             -983682         3.08417e+07
   18.55             41070.7             77.0227             -982725         3.08109e+07
   18.57             41038.3             76.9847             -981773         3.07802e+07
   18.59             41005.9             76.9461             -980824         3.07498e+07
   18.61             40973.4             76.9069             -979880         3.07195e+07
   18.63             40940.8             76.8669             -978940         3.06894e+07
   18.65             40908.1             76.8263             -978004         3.06595e+07
   18.67             40875.3             76.7849             -977073         3.06297e+07
   18.69             40842.5             76.7429             -976145         3.06001e+07
   18.71             40809.6             76.7002             -975221         3.05707e+07
   18.73             40776.6             76.6568             -974301         3.05415e+07
   18.75             40743.5             76.6127             -973385         3.05125e+07
   18.77             40710.3             76.5679             -972474         3.04836e+07
   18.79               40677             76.5224             -971566         3.04549e+07
   18.81             40643.7             76.4763             -970662         3.04263e+07
   18.83             40610.2             76.4294             -969761          3.0398e+07
   18.85             40576.7             76.3818             -968865         3.03698e+07
   18.87             40543.1             76.3336             -967972         3.03417e+07
   18.89             40509.4             76.2846             -967084         3.03139e+07
   18.91             40475.6              76.235             -966199         3.02862e+07
   18.93             40441.8             76.1846             -965317         3.02586e+07
   18.95             40407.8             76.1335             -964440         3.02313e+07
   18.97             40373.7             76.0818             -963566          3.0204e+07
   18.99             40339.6             76.0293             -962696          3.0177e+07
   19.01             40305.4             75.9761             -961830         3.01501e+07
   19.03             40271.1             75.9223             -960967         3.01234e+07
   19.05             40236.7             75.8677             -960108         3.00968e+07
   19.07             40202.2             75.8124             -959253         3.00704e+07
   19.09             40167.6             75.7565             -958402         3.00441e+07
   19.11             40132.9             75.6998             -957554          3.0018e+07
   19.13             40098.2             75.6424             -956709         2.99921e+07
   19.15             40063.3             75.5844             -955868         2.99663e+07
   19.17             40028.4             75.5256             -955031         2.99407e+07
   19.19             39993.4             75.4661             -954198         2.99152e+07
   19.21             39958.3             75.4059             -953368         2.98899e+07
   19.23             39923.1             75.3451             -952541         2.98647e+07
   19.25             39887.8             75.2835             -951718         2.98397e+07
   19.27             39852.5             75.2212             -950899         2.98148e+07
   19.29               39817             75.1583             -950083         2.97901e+07
   19.31             39781.5             75.0946             -949271         2.97655e+07
   19.33             39745.9             75.0302             -948462         2.97411e+07
   19.35             39710.2             74.9652             -947657         2.97168e+07
   19.37             39674.4             74.8995             -946855         2.96927e+07
   19.39             39638.6              74.833             -946057         2.96687e+07
   19.41             39602.6             74.7659             -945262         2.96449e+07
   19.43             39566.6             74.6981             -944471         2.96212e+07
   19.45             39530.5             74.6296             -943683         2.95977e+07
   19.47             39494.3             74.5604             -942899         2.95743e+07
   19.49             39458.1             74.4905             -942118         2.95511e+07
   19.51             39421.7               74.42             -941341          2.9528e+07
   19.53             39385.3             74.3487             -940567         2.95051e+07
   19.55             39348.8             74.2768             -939797         2.94823e+07
   19.57             39312.2             74.2042             -939030         2.94596e+07
   19.59             39275.6             74.1309             -938267         2.94371e+07
   19.61             39238.9              74.057             -937507         2.94148e+07
   19.63             39202.1             73.9824             -936750         2.93926e+07
   19.65             39165.2             73.9071             -935997         2.93705e+07
   19.67             39128.3             73.8311             -935247         2.93486e+07
   19.69             39091.3             73.7545             -934501         2.93268e+07
   19.71             39054.2             73.6772             -933758         2.93051e+07
   19.73             39017.1             73.5993             -933019         2.92836e+07
   19.75             38979.8             73.5207             -932283         2.92623e+07
   19.77             38942.6             73.4414             -931551          2.9241e+07
   19.79             38905.2             73.3615             -930822           2.922e+07
   19.81             38867.8             73.2809             -930096          2.9199e+07
   19.83             38830.3             73.1996             -929374         2.91782e+07
   19.85             38792.8             73.1178             -928655         2.91576e+07
   19.87             38755.1             73.0352             -927939         2.91371e+07
   19.89             38717.5             72.9521             -927227         2.91167e+07
   19.91             38679.7             72.8683             -926519         2.90964e+07
   19.93             38641.9             72.7838             -925813         2.90763e+07
   19.95             38604.1             72.6987             -925112         2.90564e+07
   19.97             38566.2              72.613             -924413         2.90366e+07
   19.99             38528.2             72.5267             -923718         2.90169e+07
