## w(eV)         sigma(Sm^-1)     kappa(W(mK)^-1)        L12/e(Am^-1)      L22/e^2(Wm^-1)
    0.01              539845             902.652        -1.12614e+07         3.20427e+08
    0.03              539841              902.64        -1.12613e+07         3.20425e+08
    0.05              539832             902.616        -1.12612e+07         3.20422e+08
    0.07              539820             902.579         -1.1261e+07         3.20416e+08
    0.09              539802             902.531        -1.12608e+07         3.20409e+08
    0.11              539781              902.47        -1.12605e+07         3.20399e+08
    0.13              539756             902.397        -1.12601e+07         3.20388e+08
    0.15              539726             902.312        -1.12597e+07         3.20375e+08
    0.17              539691             902.215        -1.12592e+07         3.20361e+08
    0.19              539653             902.106        -1.12586e+07         3.20344e+08
    0.21              539610             901.984         -1.1258e+07         3.20326e+08
    0.23              539563             901.851        -1.12573e+07         3.20306e+08
    0.25              539512             901.705        -1.12566e+07         3.20283e+08
    0.27              539457             901.547        -1.12558e+07          3.2026e+08
    0.29              539397             901.378         -1.1255e+07         3.20234e+08
    0.31              539333             901.196         -1.1254e+07         3.20206e+08
    0.33              539265             901.002        -1.12531e+07         3.20177e+08
    0.35              539192             900.796         -1.1252e+07         3.20145e+08
    0.37              539115             900.578        -1.12509e+07         3.20112e+08
    0.39              539034             900.348        -1.12498e+07         3.20077e+08
    0.41              538949             900.106        -1.12485e+07         3.20041e+08
    0.43              538860             899.852        -1.12473e+07         3.20002e+08
    0.45              538766             899.585        -1.12459e+07         3.19962e+08
    0.47              538668             899.307        -1.12445e+07         3.19919e+08
    0.49              538565             899.017         -1.1243e+07         3.19875e+08
    0.51              538459             898.715        -1.12415e+07         3.19829e+08
    0.53              538348             898.401        -1.12399e+07         3.19781e+08
    0.55              538233             898.076        -1.12383e+07         3.19732e+08
    0.57              538113             897.738        -1.12366e+07          3.1968e+08
    0.59              537990             897.388        -1.12348e+07         3.19627e+08
    0.61              537862             897.027         -1.1233e+07         3.19572e+08
    0.63              537730             896.654        -1.12311e+07         3.19515e+08
    0.65              537594             896.268        -1.12291e+07         3.19456e+08
    0.67              537453             895.872        -1.12271e+07         3.19396e+08
    0.69              537308             895.463         -1.1225e+07         3.19333e+08
    0.71              537159             895.042        -1.12229e+07         3.19269e+08
    0.73              537006              894.61        -1.12207e+07         3.19203e+08
    0.75              536848             894.166        -1.12184e+07         3.19135e+08
    0.77              536687             893.711        -1.12161e+07         3.19066e+08
    0.79              536521             893.244        -1.12137e+07         3.18994e+08
    0.81              536350             892.765        -1.12112e+07         3.18921e+08
    0.83              536176             892.274        -1.12087e+07         3.18846e+08
    0.85              535997             891.772        -1.12062e+07         3.18769e+08
    0.87              535814             891.259        -1.12035e+07          3.1869e+08
    0.89              535627             890.733        -1.12008e+07         3.18609e+08
    0.91              535436             890.197        -1.11981e+07         3.18527e+08
    0.93              535240             889.649        -1.11953e+07         3.18443e+08
    0.95              535041             889.089        -1.11924e+07         3.18357e+08
    0.97              534837             888.518        -1.11895e+07         3.18269e+08
    0.99              534628             887.936        -1.11864e+07         3.18179e+08
    1.01              534416             887.342        -1.11834e+07         3.18088e+08
    1.03              534199             886.737        -1.11803e+07         3.17995e+08
    1.05              533979             886.121        -1.11771e+07           3.179e+08
    1.07              533754             885.494        -1.11738e+07         3.17803e+08
    1.09              533524             884.855        -1.11705e+07         3.17704e+08
    1.11              533291             884.205        -1.11671e+07         3.17604e+08
    1.13              533053             883.544        -1.11637e+07         3.17501e+08
    1.15              532812             882.872        -1.11602e+07         3.17397e+08
    1.17              532566             882.189        -1.11567e+07         3.17292e+08
    1.19              532315             881.494         -1.1153e+07         3.17184e+08
    1.21              532061             880.789        -1.11494e+07         3.17075e+08
    1.23              531803             880.073        -1.11456e+07         3.16963e+08
    1.25              531540             879.346        -1.11418e+07          3.1685e+08
    1.27              531273             878.608        -1.11379e+07         3.16736e+08
    1.29              531002             877.859         -1.1134e+07         3.16619e+08
    1.31              530727             877.099          -1.113e+07         3.16501e+08
    1.33              530447             876.328         -1.1126e+07         3.16381e+08
    1.35              530164             875.547        -1.11219e+07         3.16259e+08
    1.37              529876             874.755        -1.11177e+07         3.16135e+08
    1.39              529584             873.953        -1.11134e+07          3.1601e+08
    1.41              529288              873.14        -1.11091e+07         3.15883e+08
    1.43              528988             872.316        -1.11048e+07         3.15754e+08
    1.45              528684             871.482        -1.11003e+07         3.15623e+08
    1.47              528375             870.637        -1.10959e+07          3.1549e+08
    1.49              528063             869.782        -1.10913e+07         3.15356e+08
    1.51              527746             868.916        -1.10867e+07          3.1522e+08
    1.53              527425              868.04         -1.1082e+07         3.15082e+08
    1.55              527100             867.154        -1.10773e+07         3.14943e+08
    1.57              526771             866.258        -1.10725e+07         3.14801e+08
    1.59              526438             865.351        -1.10676e+07         3.14658e+08
    1.61              526101             864.434        -1.10627e+07         3.14513e+08
    1.63              525759             863.508        -1.10577e+07         3.14367e+08
    1.65              525414             862.571        -1.10527e+07         3.14218e+08
    1.67              525064             861.624        -1.10475e+07         3.14068e+08
    1.69              524711             860.667        -1.10424e+07         3.13917e+08
    1.71              524353               859.7        -1.10371e+07         3.13763e+08
    1.73              523991             858.723        -1.10318e+07         3.13608e+08
    1.75              523625             857.737        -1.10265e+07         3.13451e+08
    1.77              523255              856.74         -1.1021e+07         3.13292e+08
    1.79              522881             855.734        -1.10156e+07         3.13131e+08
    1.81              522503             854.718          -1.101e+07         3.12969e+08
    1.83              522120             853.693        -1.10044e+07         3.12805e+08
    1.85              521734             852.658        -1.09987e+07         3.12639e+08
    1.87              521344             851.614         -1.0993e+07         3.12472e+08
    1.89              520949              850.56        -1.09872e+07         3.12303e+08
    1.91              520551             849.497        -1.09813e+07         3.12132e+08
    1.93              520148             848.424        -1.09754e+07         3.11959e+08
    1.95              519742             847.342        -1.09694e+07         3.11785e+08
    1.97              519331             846.251        -1.09633e+07         3.11609e+08
    1.99              518917              845.15        -1.09572e+07         3.11431e+08
    2.01              518498             844.041         -1.0951e+07         3.11251e+08
    2.03              518075             842.922        -1.09448e+07          3.1107e+08
    2.05              517649             841.794        -1.09385e+07         3.10887e+08
    2.07              517218             840.658        -1.09321e+07         3.10703e+08
    2.09              516783             839.512        -1.09257e+07         3.10516e+08
    2.11              516345             838.358        -1.09192e+07         3.10328e+08
    2.13              515902             837.194        -1.09126e+07         3.10139e+08
    2.15              515455             836.022         -1.0906e+07         3.09947e+08
    2.17              515005             834.842        -1.08993e+07         3.09754e+08
    2.19              514550             833.652        -1.08926e+07         3.09559e+08
    2.21              514091             832.454        -1.08857e+07         3.09363e+08
    2.23              513629             831.248        -1.08789e+07         3.09165e+08
    2.25              513162             830.033        -1.08719e+07         3.08965e+08
    2.27              512692             828.809        -1.08649e+07         3.08763e+08
    2.29              512218             827.578        -1.08578e+07          3.0856e+08
    2.31              511739             826.337        -1.08507e+07         3.08355e+08
    2.33              511257             825.089        -1.08435e+07         3.08148e+08
    2.35              510771             823.833        -1.08362e+07          3.0794e+08
    2.37              510281             822.568        -1.08289e+07          3.0773e+08
    2.39              509787             821.295        -1.08215e+07         3.07518e+08
    2.41              509289             820.015        -1.08141e+07         3.07305e+08
    2.43              508787             818.726        -1.08066e+07          3.0709e+08
    2.45              508281              817.43         -1.0799e+07         3.06873e+08
    2.47              507772             816.125        -1.07913e+07         3.06655e+08
    2.49              507258             814.813        -1.07836e+07         3.06435e+08
    2.51              506741             813.493        -1.07759e+07         3.06213e+08
    2.53              506220             812.166         -1.0768e+07          3.0599e+08
    2.55              505694             810.831        -1.07601e+07         3.05765e+08
    2.57              505165             809.488        -1.07522e+07         3.05539e+08
    2.59              504633             808.138        -1.07441e+07          3.0531e+08
    2.61              504096             806.781         -1.0736e+07          3.0508e+08
    2.63              503555             805.416        -1.07279e+07         3.04849e+08
    2.65              503011             804.044        -1.07197e+07         3.04616e+08
    2.67              502463             802.665        -1.07114e+07         3.04381e+08
    2.69              501911             801.278         -1.0703e+07         3.04144e+08
    2.71              501355             799.885        -1.06946e+07         3.03906e+08
    2.73              500796             798.484        -1.06861e+07         3.03666e+08
    2.75              500232             797.077        -1.06776e+07         3.03425e+08
    2.77              499665             795.662         -1.0669e+07         3.03182e+08
    2.79              499094             794.241        -1.06603e+07         3.02937e+08
    2.81              498519             792.813        -1.06516e+07         3.02691e+08
    2.83              497941             791.378        -1.06428e+07         3.02443e+08
    2.85              497359             789.936        -1.06339e+07         3.02193e+08
    2.87              496773             788.488         -1.0625e+07         3.01942e+08
    2.89              496183             787.033         -1.0616e+07         3.01689e+08
    2.91              495589             785.572        -1.06069e+07         3.01435e+08
    2.93              494992             784.105        -1.05978e+07         3.01179e+08
    2.95              494391             782.631        -1.05886e+07         3.00921e+08
    2.97              493787             781.151        -1.05793e+07         3.00662e+08
    2.99              493178             779.664          -1.057e+07         3.00401e+08
    3.01              492566             778.172        -1.05606e+07         3.00139e+08
    3.03              491951             776.673        -1.05512e+07         2.99874e+08
    3.05              491331             775.168        -1.05417e+07         2.99609e+08
    3.07              490708             773.657        -1.05321e+07         2.99341e+08
    3.09              490081             772.141        -1.05224e+07         2.99072e+08
    3.11              489451             770.618        -1.05127e+07         2.98802e+08
    3.13              488817              769.09         -1.0503e+07          2.9853e+08
    3.15              488179             767.556        -1.04931e+07         2.98256e+08
    3.17              487538             766.016        -1.04832e+07         2.97981e+08
    3.19              486893             764.471        -1.04733e+07         2.97704e+08
    3.21              486245              762.92        -1.04632e+07         2.97425e+08
    3.23              485592             761.363        -1.04531e+07         2.97145e+08
    3.25              484937             759.802         -1.0443e+07         2.96864e+08
    3.27              484277             758.234        -1.04327e+07          2.9658e+08
    3.29              483615             756.662        -1.04224e+07         2.96295e+08
    3.31              482948             755.084        -1.04121e+07         2.96009e+08
    3.33              482278             753.501        -1.04016e+07         2.95721e+08
    3.35              481605             751.913        -1.03912e+07         2.95431e+08
    3.37              480927              750.32        -1.03806e+07          2.9514e+08
    3.39              480247             748.722          -1.037e+07         2.94847e+08
    3.41              479563             747.119        -1.03593e+07         2.94553e+08
    3.43              478875             745.511        -1.03485e+07         2.94257e+08
    3.45              478184             743.899        -1.03377e+07         2.93959e+08
    3.47              477489             742.281        -1.03268e+07          2.9366e+08
    3.49              476791             740.659        -1.03159e+07          2.9336e+08
    3.51              476090             739.033        -1.03049e+07         2.93058e+08
    3.53              475385             737.401        -1.02938e+07         2.92754e+08
    3.55              474676             735.765        -1.02827e+07         2.92448e+08
    3.57              473964             734.125        -1.02714e+07         2.92142e+08
    3.59              473249             732.481        -1.02602e+07         2.91833e+08
    3.61              472530             730.832        -1.02488e+07         2.91523e+08
    3.63              471808             729.178        -1.02374e+07         2.91211e+08
    3.65              471082             727.521         -1.0226e+07         2.90898e+08
    3.67              470353             725.859        -1.02144e+07         2.90584e+08
    3.69              469621             724.194        -1.02028e+07         2.90267e+08
    3.71              468885             722.524        -1.01911e+07          2.8995e+08
    3.73              468146              720.85        -1.01794e+07          2.8963e+08
    3.75              467404             719.173        -1.01676e+07         2.89309e+08
    3.77              466658             717.492        -1.01558e+07         2.88987e+08
    3.79              465909             715.806        -1.01438e+07         2.88663e+08
    3.81              465156             714.117        -1.01318e+07         2.88337e+08
    3.83              464400             712.425        -1.01198e+07          2.8801e+08
    3.85              463641             710.729        -1.01076e+07         2.87681e+08
    3.87              462879             709.029        -1.00955e+07         2.87351e+08
    3.89              462114             707.326        -1.00832e+07          2.8702e+08
    3.91              461345             705.619        -1.00709e+07         2.86686e+08
    3.93              460573             703.909        -1.00585e+07         2.86351e+08
    3.95              459797             702.195         -1.0046e+07         2.86015e+08
    3.97              459019             700.479        -1.00335e+07         2.85677e+08
    3.99              458237             698.759        -1.00209e+07         2.85338e+08
    4.01              457452             697.036        -1.00083e+07         2.84997e+08
    4.03              456664             695.309        -9.99558e+06         2.84654e+08
    4.05              455873              693.58         -9.9828e+06          2.8431e+08
    4.07              455078             691.848        -9.96996e+06         2.83965e+08
    4.09              454280             690.113        -9.95705e+06         2.83618e+08
    4.11              453480             688.375        -9.94408e+06         2.83269e+08
    4.13              452676             686.634        -9.93104e+06         2.82919e+08
    4.15              451869              684.89        -9.91794e+06         2.82567e+08
    4.17              451059             683.144        -9.90477e+06         2.82214e+08
    4.19              450245             681.395        -9.89153e+06         2.81859e+08
    4.21              449429             679.643        -9.87824e+06         2.81503e+08
    4.23              448610             677.889        -9.86487e+06         2.81145e+08
    4.25              447787             676.133        -9.85144e+06         2.80786e+08
    4.27              446962             674.374        -9.83795e+06         2.80425e+08
    4.29              446133             672.612        -9.82439e+06         2.80063e+08
    4.31              445302             670.848        -9.81077e+06         2.79699e+08
    4.33              444467             669.082        -9.79708e+06         2.79334e+08
    4.35              443630             667.314        -9.78333e+06         2.78967e+08
    4.37              442789             665.543        -9.76951e+06         2.78599e+08
    4.39              441946             663.771        -9.75563e+06         2.78229e+08
    4.41              441099             661.996        -9.74168e+06         2.77858e+08
    4.43              440250             660.219        -9.72767e+06         2.77485e+08
    4.45              439398              658.44        -9.71359e+06          2.7711e+08
    4.47              438543              656.66        -9.69945e+06         2.76734e+08
    4.49              437685             654.877        -9.68525e+06         2.76357e+08
    4.51              436824             653.093        -9.67098e+06         2.75978e+08
    4.53              435960             651.307        -9.65665e+06         2.75598e+08
    4.55              435093             649.519        -9.64225e+06         2.75216e+08
    4.57              434224             647.729        -9.62779e+06         2.74833e+08
    4.59              433351             645.938        -9.61326e+06         2.74448e+08
    4.61              432476             644.145        -9.59868e+06         2.74061e+08
    4.63              431598             642.351        -9.58402e+06         2.73673e+08
    4.65              430717             640.555         -9.5693e+06         2.73284e+08
    4.67              429834             638.758        -9.55452e+06         2.72893e+08
    4.69              428948              636.96        -9.53968e+06         2.72501e+08
    4.71              428059              635.16        -9.52477e+06         2.72107e+08
    4.73              427167             633.359         -9.5098e+06         2.71712e+08
    4.75              426272             631.556        -9.49476e+06         2.71315e+08
    4.77              425375             629.753        -9.47967e+06         2.70916e+08
    4.79              424476             627.948         -9.4645e+06         2.70517e+08
    4.81              423573             626.142        -9.44928e+06         2.70115e+08
    4.83              422668             624.335        -9.43399e+06         2.69712e+08
    4.85              421760             622.527        -9.41864e+06         2.69308e+08
    4.87              420850             620.718        -9.40323e+06         2.68902e+08
    4.89              419937             618.908        -9.38775e+06         2.68495e+08
    4.91              419021             617.098        -9.37221e+06         2.68087e+08
    4.93              418103             615.286        -9.35661e+06         2.67676e+08
    4.95              417183             613.474        -9.34094e+06         2.67265e+08
    4.97              416259             611.661        -9.32522e+06         2.66852e+08
    4.99              415334             609.847        -9.30943e+06         2.66437e+08
    5.01              414405             608.032        -9.29358e+06         2.66021e+08
    5.03              413475             606.217        -9.27766e+06         2.65603e+08
    5.05              412541             604.402        -9.26169e+06         2.65184e+08
    5.07              411606             602.585        -9.24565e+06         2.64764e+08
    5.09              410668             600.769        -9.22955e+06         2.64342e+08
    5.11              409727             598.952        -9.21339e+06         2.63919e+08
    5.13              408784             597.134        -9.19717e+06         2.63494e+08
    5.15              407839             595.316        -9.18089e+06         2.63068e+08
    5.17              406891             593.498        -9.16455e+06          2.6264e+08
    5.19              405941             591.679        -9.14814e+06         2.62211e+08
    5.21              404989             589.861        -9.13168e+06          2.6178e+08
    5.23              404034             588.042        -9.11515e+06         2.61348e+08
    5.25              403077             586.223        -9.09856e+06         2.60914e+08
    5.27              402117             584.403        -9.08192e+06         2.60479e+08
    5.29              401156             582.584        -9.06521e+06         2.60043e+08
    5.31              400192             580.765        -9.04844e+06         2.59605e+08
    5.33              399226             578.945        -9.03161e+06         2.59165e+08
    5.35              398258             577.126        -9.01472e+06         2.58725e+08
    5.37              397287             575.306        -8.99778e+06         2.58282e+08
    5.39              396314             573.487        -8.98077e+06         2.57839e+08
    5.41              395340             571.668        -8.96371e+06         2.57394e+08
    5.43              394363             569.849        -8.94658e+06         2.56947e+08
    5.45              393383              568.03         -8.9294e+06         2.56499e+08
    5.47              392402             566.212        -8.91215e+06          2.5605e+08
    5.49              391419             564.394        -8.89485e+06         2.55599e+08
    5.51              390433             562.576        -8.87749e+06         2.55147e+08
    5.53              389446             560.759        -8.86008e+06         2.54693e+08
    5.55              388456             558.941         -8.8426e+06         2.54238e+08
    5.57              387465             557.125        -8.82507e+06         2.53781e+08
    5.59              386471             555.309        -8.80748e+06         2.53323e+08
    5.61              385476             553.493        -8.78983e+06         2.52864e+08
    5.63              384478             551.678        -8.77212e+06         2.52403e+08
    5.65              383479             549.863        -8.75436e+06         2.51941e+08
    5.67              382478             548.049        -8.73654e+06         2.51478e+08
    5.69              381474             546.236        -8.71866e+06         2.51013e+08
    5.71              380469             544.423        -8.70073e+06         2.50547e+08
    5.73              379462             542.611        -8.68274e+06         2.50079e+08
    5.75              378453               540.8         -8.6647e+06          2.4961e+08
    5.77              377443             538.989         -8.6466e+06         2.49139e+08
    5.79              376430             537.179        -8.62844e+06         2.48667e+08
    5.81              375416              535.37        -8.61023e+06         2.48194e+08
    5.83              374400             533.562        -8.59196e+06         2.47719e+08
    5.85              373382             531.755        -8.57364e+06         2.47243e+08
    5.87              372363             529.949        -8.55527e+06         2.46766e+08
    5.89              371342             528.144        -8.53684e+06         2.46287e+08
    5.91              370319             526.339        -8.51835e+06         2.45807e+08
    5.93              369294             524.536        -8.49981e+06         2.45326e+08
    5.95              368268             522.734        -8.48122e+06         2.44843e+08
    5.97              367240             520.933        -8.46258e+06         2.44358e+08
    5.99              366211             519.132        -8.44388e+06         2.43873e+08
    6.01              365180             517.333        -8.42513e+06         2.43386e+08
    6.03              364147             515.536        -8.40633e+06         2.42898e+08
    6.05              363113             513.739        -8.38747e+06         2.42408e+08
    6.07              362078             511.944        -8.36857e+06         2.41917e+08
    6.09              361041              510.15        -8.34961e+06         2.41425e+08
    6.11              360002             508.357         -8.3306e+06         2.40931e+08
    6.13              358962             506.565        -8.31154e+06         2.40436e+08
    6.15              357921             504.775        -8.29242e+06          2.3994e+08
    6.17              356878             502.986        -8.27326e+06         2.39443e+08
    6.19              355834             501.199        -8.25405e+06         2.38944e+08
    6.21              354788             499.412        -8.23479e+06         2.38444e+08
    6.23              353741             497.628        -8.21547e+06         2.37942e+08
    6.25              352693             495.845        -8.19611e+06         2.37439e+08
    6.27              351643             494.063         -8.1767e+06         2.36935e+08
    6.29              350592             492.283        -8.15724e+06          2.3643e+08
    6.31              349540             490.504        -8.13774e+06         2.35923e+08
    6.33              348487             488.727        -8.11818e+06         2.35415e+08
    6.35              347432             486.952        -8.09858e+06         2.34906e+08
    6.37              346377             485.178        -8.07893e+06         2.34396e+08
    6.39              345320             483.406        -8.05923e+06         2.33884e+08
    6.41              344262             481.635        -8.03948e+06         2.33371e+08
    6.43              343203             479.867        -8.01969e+06         2.32857e+08
    6.45              342142             478.099        -7.99985e+06         2.32341e+08
    6.47              341081             476.334        -7.97997e+06         2.31825e+08
    6.49              340019             474.571        -7.96004e+06         2.31307e+08
    6.51              338955             472.809        -7.94007e+06         2.30788e+08
    6.53              337891             471.049        -7.92005e+06         2.30267e+08
    6.55              336825             469.291        -7.89999e+06         2.29745e+08
    6.57              335759             467.535        -7.87988e+06         2.29223e+08
    6.59              334692              465.78        -7.85973e+06         2.28699e+08
    6.61              333624             464.028        -7.83954e+06         2.28173e+08
    6.63              332554             462.278         -7.8193e+06         2.27647e+08
    6.65              331485             460.529        -7.79903e+06         2.27119e+08
    6.67              330414             458.783        -7.77871e+06          2.2659e+08
    6.69              329342             457.038        -7.75834e+06          2.2606e+08
    6.71              328270             455.296        -7.73794e+06         2.25529e+08
    6.73              327196             453.555         -7.7175e+06         2.24997e+08
    6.75              326123             451.817        -7.69701e+06         2.24464e+08
    6.77              325048             450.081        -7.67649e+06         2.23929e+08
    6.79              323973             448.347        -7.65592e+06         2.23393e+08
    6.81              322897             446.615        -7.63532e+06         2.22856e+08
    6.83              321820             444.885        -7.61468e+06         2.22318e+08
    6.85              320743             443.157        -7.59399e+06         2.21779e+08
    6.87              319665             441.432        -7.57327e+06         2.21239e+08
    6.89              318586             439.709        -7.55252e+06         2.20697e+08
    6.91              317507             437.988        -7.53172e+06         2.20155e+08
    6.93              316428             436.269        -7.51089e+06         2.19611e+08
    6.95              315348             434.553        -7.49002e+06         2.19067e+08
    6.97              314267             432.839        -7.46912e+06         2.18521e+08
    6.99              313186             431.127        -7.44818e+06         2.17974e+08
    7.01              312105             429.418        -7.42721e+06         2.17426e+08
    7.03              311023             427.711         -7.4062e+06         2.16877e+08
    7.05              309941             426.007        -7.38516e+06         2.16327e+08
    7.07              308858             424.305        -7.36408e+06         2.15776e+08
    7.09              307775             422.605        -7.34297e+06         2.15224e+08
    7.11              306692             420.908        -7.32183e+06         2.14671e+08
    7.13              305609             419.213        -7.30065e+06         2.14117e+08
    7.15              304525             417.521        -7.27944e+06         2.13562e+08
    7.17              303441             415.831        -7.25821e+06         2.13006e+08
    7.19              302357             414.144        -7.23694e+06         2.12449e+08
    7.21              301273             412.459        -7.21564e+06         2.11891e+08
    7.23              300189             410.777        -7.19431e+06         2.11332e+08
    7.25              299104             409.098        -7.17295e+06         2.10772e+08
    7.27              298019             407.421        -7.15156e+06         2.10212e+08
    7.29              296935             405.747        -7.13014e+06          2.0965e+08
    7.31              295850             404.075        -7.10869e+06         2.09087e+08
    7.33              294765             402.407        -7.08722e+06         2.08523e+08
    7.35              293680              400.74        -7.06572e+06         2.07959e+08
    7.37              292596             399.077        -7.04419e+06         2.07394e+08
    7.39              291511             397.416        -7.02264e+06         2.06827e+08
    7.41              290426             395.758        -7.00106e+06          2.0626e+08
    7.43              289342             394.103        -6.97946e+06         2.05692e+08
    7.45              288257             392.451        -6.95783e+06         2.05123e+08
    7.47              287173             390.801        -6.93618e+06         2.04553e+08
    7.49              286089             389.155         -6.9145e+06         2.03983e+08
    7.51              285005             387.511         -6.8928e+06         2.03411e+08
    7.53              283922              385.87        -6.87108e+06         2.02839e+08
    7.55              282839             384.232        -6.84934e+06         2.02266e+08
    7.57              281756             382.597        -6.82757e+06         2.01692e+08
    7.59              280673             380.964        -6.80579e+06         2.01117e+08
    7.61              279591             379.335        -6.78398e+06         2.00542e+08
    7.63              278509             377.709        -6.76216e+06         1.99966e+08
    7.65              277427             376.085        -6.74031e+06         1.99389e+08
    7.67              276346             374.465        -6.71845e+06         1.98811e+08
    7.69              275265             372.847        -6.69656e+06         1.98233e+08
    7.71              274185             371.233        -6.67466e+06         1.97653e+08
    7.73              273105             369.622        -6.65274e+06         1.97074e+08
    7.75              272026             368.014        -6.63081e+06         1.96493e+08
    7.77              270947             366.408        -6.60886e+06         1.95912e+08
    7.79              269869             364.806        -6.58689e+06          1.9533e+08
    7.81              268792             363.207        -6.56491e+06         1.94748e+08
    7.83              267715             361.612        -6.54292e+06         1.94164e+08
    7.85              266639             360.019        -6.52091e+06         1.93581e+08
    7.87              265563              358.43        -6.49889e+06         1.92996e+08
    7.89              264489             356.843        -6.47685e+06         1.92411e+08
    7.91              263415              355.26         -6.4548e+06         1.91825e+08
    7.93              262341             353.681        -6.43274e+06         1.91239e+08
    7.95              261269             352.104        -6.41067e+06         1.90652e+08
    7.97              260197             350.531        -6.38859e+06         1.90065e+08
    7.99              259126             348.961         -6.3665e+06         1.89477e+08
    8.01              258057             347.394         -6.3444e+06         1.88889e+08
    8.03              256987             345.831         -6.3223e+06           1.883e+08
    8.05              255919             344.271        -6.30018e+06          1.8771e+08
    8.07              254852             342.714        -6.27806e+06          1.8712e+08
    8.09              253786             341.161        -6.25592e+06          1.8653e+08
    8.11              252721             339.611        -6.23379e+06         1.85939e+08
    8.13              251657             338.064        -6.21164e+06         1.85348e+08
    8.15              250594             336.521         -6.1895e+06         1.84756e+08
    8.17              249531             334.981        -6.16734e+06         1.84164e+08
    8.19              248471             333.445        -6.14519e+06         1.83571e+08
    8.21              247411             331.912        -6.12303e+06         1.82978e+08
    8.23              246352             330.383        -6.10086e+06         1.82385e+08
    8.25              245295             328.857         -6.0787e+06         1.81791e+08
    8.27              244238             327.335        -6.05653e+06         1.81197e+08
    8.29              243183             325.817        -6.03436e+06         1.80602e+08
    8.31              242130             324.302        -6.01219e+06         1.80008e+08
    8.33              241077              322.79        -5.99003e+06         1.79412e+08
    8.35              240026             321.282        -5.96786e+06         1.78817e+08
    8.37              238976             319.778        -5.94569e+06         1.78221e+08
    8.39              237928             318.277        -5.92353e+06         1.77625e+08
    8.41              236881              316.78        -5.90137e+06         1.77029e+08
    8.43              235835             315.287        -5.87921e+06         1.76433e+08
    8.45              234791             313.797        -5.85706e+06         1.75836e+08
    8.47              233748             312.311        -5.83491e+06         1.75239e+08
    8.49              232707             310.829        -5.81276e+06         1.74642e+08
    8.51              231667              309.35        -5.79062e+06         1.74045e+08
    8.53              230629             307.876        -5.76849e+06         1.73447e+08
    8.55              229593             306.405        -5.74636e+06          1.7285e+08
    8.57              228558             304.937        -5.72425e+06         1.72252e+08
    8.59              227524             303.474        -5.70214e+06         1.71654e+08
    8.61              226492             302.014        -5.68003e+06         1.71056e+08
    8.63              225462             300.559        -5.65794e+06         1.70458e+08
    8.65              224434             299.107        -5.63586e+06          1.6986e+08
    8.67              223407             297.659        -5.61379e+06         1.69261e+08
    8.69              222382             296.215        -5.59173e+06         1.68663e+08
    8.71              221359             294.774        -5.56968e+06         1.68065e+08
    8.73              220338             293.338        -5.54764e+06         1.67467e+08
    8.75              219318             291.906        -5.52562e+06         1.66868e+08
    8.77              218301             290.477        -5.50361e+06          1.6627e+08
    8.79              217285             289.053        -5.48162e+06         1.65672e+08
    8.81              216271             287.632        -5.45964e+06         1.65074e+08
    8.83              215259             286.216        -5.43767e+06         1.64475e+08
    8.85              214249             284.804        -5.41572e+06         1.63877e+08
    8.87              213241             283.395        -5.39379e+06         1.63279e+08
    8.89              212235             281.991        -5.37188e+06         1.62681e+08
    8.91              211231             280.591        -5.34998e+06         1.62084e+08
    8.93              210229             279.194         -5.3281e+06         1.61486e+08
    8.95              209229             277.802        -5.30625e+06         1.60889e+08
    8.97              208231             276.415        -5.28441e+06         1.60291e+08
    8.99              207235             275.031        -5.26259e+06         1.59694e+08
    9.01              206241             273.651        -5.24079e+06         1.59098e+08
    9.03              205250             272.276        -5.21902e+06         1.58501e+08
    9.05              204260             270.904        -5.19727e+06         1.57904e+08
    9.07              203273             269.537        -5.17554e+06         1.57308e+08
    9.09              202288             268.175        -5.15383e+06         1.56712e+08
    9.11              201305             266.816        -5.13215e+06         1.56117e+08
    9.13              200325             265.462        -5.11049e+06         1.55522e+08
    9.15              199347             264.112        -5.08886e+06         1.54927e+08
    9.17              198371             262.766        -5.06725e+06         1.54332e+08
    9.19              197398             261.425        -5.04567e+06         1.53738e+08
    9.21              196426             260.087        -5.02412e+06         1.53144e+08
    9.23              195458             258.755         -5.0026e+06          1.5255e+08
    9.25              194491             257.426         -4.9811e+06         1.51957e+08
    9.27              193527             256.102        -4.95963e+06         1.51364e+08
    9.29              192566             254.783         -4.9382e+06         1.50772e+08
    9.31              191607             253.467        -4.91679e+06          1.5018e+08
    9.33              190650             252.157        -4.89541e+06         1.49589e+08
    9.35              189696              250.85        -4.87407e+06         1.48998e+08
    9.37              188745             249.548        -4.85275e+06         1.48408e+08
    9.39              187796             248.251        -4.83147e+06         1.47818e+08
    9.41              186850             246.958        -4.81022e+06         1.47229e+08
    9.43              185906             245.669        -4.78901e+06          1.4664e+08
    9.45              184965             244.385        -4.76783e+06         1.46052e+08
    9.47              184026             243.106        -4.74669e+06         1.45464e+08
    9.49              183090             241.831        -4.72558e+06         1.44877e+08
    9.51              182157             240.561        -4.70451e+06          1.4429e+08
    9.53              181227             239.295        -4.68347e+06         1.43705e+08
    9.55              180299             238.034        -4.66247e+06          1.4312e+08
    9.57              179374             236.777        -4.64151e+06         1.42535e+08
    9.59              178451             235.526        -4.62059e+06         1.41951e+08
    9.61              177532             234.278         -4.5997e+06         1.41368e+08
    9.63              176615             233.036        -4.57886e+06         1.40786e+08
    9.65              175701             231.798        -4.55805e+06         1.40204e+08
    9.67              174790             230.565        -4.53729e+06         1.39623e+08
    9.69              173882             229.336        -4.51657e+06         1.39043e+08
    9.71              172976             228.112        -4.49589e+06         1.38464e+08
    9.73              172074             226.893        -4.47525e+06         1.37885e+08
    9.75              171174             225.679        -4.45465e+06         1.37307e+08
    9.77              170278             224.469         -4.4341e+06          1.3673e+08
    9.79              169384             223.265        -4.41359e+06         1.36154e+08
    9.81              168493             222.065        -4.39313e+06         1.35579e+08
    9.83              167605              220.87        -4.37271e+06         1.35005e+08
    9.85              166720             219.679        -4.35234e+06         1.34431e+08
    9.87              165839             218.494        -4.33201e+06         1.33858e+08
    9.89              164960             217.313        -4.31173e+06         1.33287e+08
    9.91              164084             216.137         -4.2915e+06         1.32716e+08
    9.93              163211             214.966        -4.27131e+06         1.32146e+08
    9.95              162342               213.8        -4.25117e+06         1.31577e+08
    9.97              161475             212.639        -4.23108e+06          1.3101e+08
    9.99              160612             211.483        -4.21105e+06         1.30443e+08
   10.01              159751             210.332        -4.19106e+06         1.29877e+08
   10.03              158894             209.186        -4.17112e+06         1.29312e+08
   10.05              158040             208.044        -4.15123e+06         1.28748e+08
   10.07              157189             206.908        -4.13139e+06         1.28186e+08
   10.09              156342             205.777         -4.1116e+06         1.27624e+08
   10.11              155497              204.65        -4.09187e+06         1.27064e+08
   10.13              154656             203.529        -4.07219e+06         1.26504e+08
   10.15              153818             202.413        -4.05256e+06         1.25946e+08
   10.17              152983             201.301        -4.03299e+06         1.25389e+08
   10.19              152152             200.195        -4.01347e+06         1.24833e+08
   10.21              151323             199.094          -3.994e+06         1.24278e+08
   10.23              150498             197.998        -3.97459e+06         1.23724e+08
   10.25              149677             196.907        -3.95524e+06         1.23172e+08
   10.27              148858             195.821        -3.93594e+06          1.2262e+08
   10.29              148043             194.741         -3.9167e+06          1.2207e+08
   10.31              147231             193.665        -3.89751e+06         1.21522e+08
   10.33              146423             192.594        -3.87839e+06         1.20974e+08
   10.35              145618             191.529        -3.85932e+06         1.20428e+08
   10.37              144816             190.469        -3.84031e+06         1.19883e+08
   10.39              144018             189.414        -3.82135e+06         1.19339e+08
   10.41              143223             188.364        -3.80246e+06         1.18797e+08
   10.43              142432              187.32        -3.78362e+06         1.18255e+08
   10.45              141643              186.28        -3.76485e+06         1.17716e+08
   10.47              140859             185.246        -3.74614e+06         1.17177e+08
   10.49              140078             184.217        -3.72748e+06          1.1664e+08
   10.51              139300             183.194        -3.70889e+06         1.16105e+08
   10.53              138525             182.175        -3.69036e+06          1.1557e+08
   10.55              137755             181.162        -3.67189e+06         1.15038e+08
   10.57              136987             180.154        -3.65349e+06         1.14506e+08
   10.59              136223             179.152        -3.63515e+06         1.13976e+08
   10.61              135463             178.154        -3.61687e+06         1.13448e+08
   10.63              134706             177.162        -3.59865e+06          1.1292e+08
   10.65              133953             176.176         -3.5805e+06         1.12395e+08
   10.67              133203             175.194        -3.56241e+06         1.11871e+08
   10.69              132457             174.218        -3.54439e+06         1.11348e+08
   10.71              131714             173.248        -3.52643e+06         1.10827e+08
   10.73              130975             172.282        -3.50854e+06         1.10307e+08
   10.75              130239             171.322        -3.49071e+06         1.09789e+08
   10.77              129507             170.368        -3.47295e+06         1.09273e+08
   10.79              128778             169.419        -3.45526e+06         1.08758e+08
   10.81              128054             168.475        -3.43763e+06         1.08244e+08
   10.83              127332             167.536        -3.42007e+06         1.07732e+08
   10.85              126614             166.603        -3.40258e+06         1.07222e+08
   10.87              125900             165.676        -3.38515e+06         1.06713e+08
   10.89              125190             164.753         -3.3678e+06         1.06206e+08
   10.91              124483             163.836        -3.35051e+06         1.05701e+08
   10.93              123779             162.925        -3.33329e+06         1.05197e+08
   10.95              123080             162.019        -3.31614e+06         1.04695e+08
   10.97              122384             161.118        -3.29905e+06         1.04195e+08
   10.99              121691             160.223        -3.28204e+06         1.03696e+08
   11.01              121003             159.334         -3.2651e+06         1.03199e+08
   11.03              120317             158.449        -3.24823e+06         1.02703e+08
   11.05              119636             157.571        -3.23143e+06          1.0221e+08
   11.07              118958             156.697         -3.2147e+06         1.01718e+08
   11.09              118284              155.83        -3.19804e+06         1.01227e+08
   11.11              117613             154.967        -3.18145e+06         1.00739e+08
   11.13              116947              154.11        -3.16493e+06         1.00252e+08
   11.15              116283             153.259        -3.14849e+06         9.97669e+07
   11.17              115624             152.413        -3.13211e+06         9.92837e+07
   11.19              114968             151.573        -3.11581e+06         9.88021e+07
   11.21              114316             150.738        -3.09958e+06         9.83224e+07
   11.23              113667             149.908        -3.08343e+06         9.78445e+07
   11.25              113023             149.085        -3.06734e+06         9.73684e+07
   11.27              112382             148.266        -3.05133e+06          9.6894e+07
   11.29              111744             147.453         -3.0354e+06         9.64215e+07
   11.31              111110             146.646        -3.01953e+06         9.59509e+07
   11.33              110480             145.844        -3.00374e+06          9.5482e+07
   11.35              109854             145.048        -2.98803e+06          9.5015e+07
   11.37              109231             144.257        -2.97239e+06         9.45499e+07
   11.39              108612             143.471        -2.95682e+06         9.40866e+07
   11.41              107997             142.692        -2.94133e+06         9.36252e+07
   11.43              107386             141.917        -2.92591e+06         9.31657e+07
   11.45              106778             141.148        -2.91056e+06          9.2708e+07
   11.47              106174             140.385         -2.8953e+06         9.22522e+07
   11.49              105573             139.627         -2.8801e+06         9.17984e+07
   11.51              104976             138.875        -2.86498e+06         9.13464e+07
   11.53              104383             138.128        -2.84994e+06         9.08964e+07
   11.55              103794             137.387        -2.83497e+06         9.04483e+07
   11.57              103208             136.651        -2.82008e+06         9.00021e+07
   11.59              102626             135.921        -2.80527e+06         8.95578e+07
   11.61              102048             135.196        -2.79053e+06         8.91155e+07
   11.63              101473             134.477        -2.77586e+06         8.86751e+07
   11.65              100902             133.763        -2.76128e+06         8.82367e+07
   11.67              100335             133.055        -2.74676e+06         8.78002e+07
   11.69             99770.9             132.352        -2.73233e+06         8.73657e+07
   11.71             99210.9             131.655        -2.71797e+06         8.69332e+07
   11.73             98654.6             130.963        -2.70369e+06         8.65027e+07
   11.75             98101.9             130.277        -2.68948e+06         8.60741e+07
   11.77               97553             129.596        -2.67535e+06         8.56475e+07
   11.79             97007.7             128.921         -2.6613e+06         8.52229e+07
   11.81               96466             128.251        -2.64733e+06         8.48004e+07
   11.83               95928             127.587        -2.63343e+06         8.43798e+07
   11.85             95393.6             126.928         -2.6196e+06         8.39612e+07
   11.87             94862.9             126.275        -2.60586e+06         8.35446e+07
   11.89             94335.9             125.626        -2.59219e+06         8.31301e+07
   11.91             93812.4             124.984         -2.5786e+06         8.27175e+07
   11.93             93292.6             124.347        -2.56509e+06          8.2307e+07
   11.95             92776.4             123.715        -2.55165e+06         8.18985e+07
   11.97             92263.9             123.089        -2.53829e+06         8.14921e+07
   11.99             91754.9             122.468        -2.52501e+06         8.10877e+07
   12.01             91249.6             121.852        -2.51181e+06         8.06853e+07
   12.03             90747.8             121.242        -2.49868e+06          8.0285e+07
   12.05             90249.7             120.637        -2.48563e+06         7.98867e+07
   12.07             89755.1             120.038        -2.47265e+06         7.94904e+07
   12.09             89264.1             119.444        -2.45976e+06         7.90963e+07
   12.11             88776.7             118.856        -2.44694e+06         7.87041e+07
   12.13             88292.8             118.272         -2.4342e+06          7.8314e+07
   12.15             87812.6             117.694        -2.42153e+06          7.7926e+07
   12.17             87335.8             117.122        -2.40894e+06         7.75401e+07
   12.19             86862.7             116.554        -2.39643e+06         7.71562e+07
   12.21               86393             115.992          -2.384e+06         7.67743e+07
   12.23             85926.9             115.436        -2.37164e+06         7.63946e+07
   12.25             85464.3             114.884        -2.35936e+06         7.60169e+07
   12.27             85005.2             114.338        -2.34716e+06         7.56413e+07
   12.29             84549.6             113.797        -2.33504e+06         7.52677e+07
   12.31             84097.6             113.261        -2.32299e+06         7.48962e+07
   12.33               83649             112.731        -2.31101e+06         7.45268e+07
   12.35             83203.8             112.205        -2.29912e+06         7.41595e+07
   12.37             82762.2             111.685         -2.2873e+06         7.37942e+07
   12.39               82324              111.17        -2.27555e+06         7.34311e+07
   12.41             81889.3             110.661        -2.26389e+06           7.307e+07
   12.43               81458             110.156         -2.2523e+06         7.27109e+07
   12.45             81030.1             109.657        -2.24078e+06          7.2354e+07
   12.47             80605.7             109.162        -2.22934e+06         7.19991e+07
   12.49             80184.6             108.673        -2.21798e+06         7.16463e+07
   12.51               79767             108.189        -2.20669e+06         7.12956e+07
   12.53             79352.7              107.71        -2.19548e+06         7.09469e+07
   12.55             78941.9             107.236        -2.18435e+06         7.06004e+07
   12.57             78534.4             106.767        -2.17329e+06         7.02559e+07
   12.59             78130.2             106.303         -2.1623e+06         6.99134e+07
   12.61             77729.4             105.844        -2.15139e+06         6.95731e+07
   12.63             77331.9              105.39        -2.14056e+06         6.92348e+07
   12.65             76937.8             104.941         -2.1298e+06         6.88986e+07
   12.67               76547             104.497        -2.11911e+06         6.85645e+07
   12.69             76159.4             104.057         -2.1085e+06         6.82324e+07
   12.71             75775.2             103.623        -2.09797e+06         6.79024e+07
   12.73             75394.2             103.194        -2.08751e+06         6.75744e+07
   12.75             75016.5             102.769        -2.07712e+06         6.72485e+07
   12.77             74642.1             102.349        -2.06681e+06         6.69247e+07
   12.79             74270.8             101.934        -2.05657e+06         6.66029e+07
   12.81             73902.9             101.524         -2.0464e+06         6.62832e+07
   12.83             73538.1             101.119        -2.03631e+06         6.59656e+07
   12.85             73176.5             100.718        -2.02629e+06           6.565e+07
   12.87             72818.1             100.322        -2.01634e+06         6.53364e+07
   12.89             72462.9             99.9313        -2.00647e+06         6.50249e+07
   12.91             72110.8             99.5448        -1.99666e+06         6.47154e+07
   12.93             71761.9              99.163        -1.98693e+06         6.44079e+07
   12.95             71416.2             98.7859        -1.97728e+06         6.41025e+07
   12.97             71073.5             98.4133        -1.96769e+06         6.37992e+07
   12.99               70734             98.0453        -1.95818e+06         6.34978e+07
   13.01             70397.5             97.6819        -1.94874e+06         6.31985e+07
   13.03             70064.1             97.3231        -1.93937e+06         6.29012e+07
   13.05             69733.8             96.9687        -1.93007e+06         6.26059e+07
   13.07             69406.6             96.6189        -1.92084e+06         6.23126e+07
   13.09             69082.3             96.2735        -1.91168e+06         6.20213e+07
   13.11             68761.1             95.9325         -1.9026e+06          6.1732e+07
   13.13               68443              95.596        -1.89358e+06         6.14448e+07
   13.15             68127.8             95.2638        -1.88463e+06         6.11595e+07
   13.17             67815.5              94.936        -1.87575e+06         6.08762e+07
   13.19             67506.3             94.6126        -1.86695e+06         6.05949e+07
   13.21               67200             94.2934        -1.85821e+06         6.03156e+07
   13.23             66896.6             93.9786        -1.84954e+06         6.00382e+07
   13.25             66596.1             93.6679        -1.84093e+06         5.97628e+07
   13.27             66298.6             93.3615         -1.8324e+06         5.94894e+07
   13.29             66003.9             93.0593        -1.82394e+06          5.9218e+07
   13.31             65712.1             92.7613        -1.81554e+06         5.89485e+07
   13.33             65423.2             92.4674        -1.80721e+06         5.86809e+07
   13.35             65137.1             92.1777        -1.79895e+06         5.84153e+07
   13.37             64853.8              91.892        -1.79075e+06         5.81516e+07
   13.39             64573.3             91.6103        -1.78262e+06         5.78899e+07
   13.41             64295.7             91.3327        -1.77456e+06         5.76301e+07
   13.43             64020.8             91.0591        -1.76656e+06         5.73722e+07
   13.45             63748.6             90.7895        -1.75863e+06         5.71162e+07
   13.47             63479.3             90.5238        -1.75077e+06         5.68621e+07
   13.49             63212.6              90.262        -1.74297e+06         5.66099e+07
   13.51             62948.7             90.0041        -1.73524e+06         5.63596e+07
   13.53             62687.4               89.75        -1.72757e+06         5.61112e+07
   13.55             62428.9             89.4997        -1.71996e+06         5.58647e+07
   13.57               62173             89.2533        -1.71242e+06           5.562e+07
   13.59             61919.7             89.0106        -1.70494e+06         5.53773e+07
   13.61             61669.1             88.7716        -1.69753e+06         5.51363e+07
   13.63             61421.1             88.5363        -1.69018e+06         5.48973e+07
   13.65             61175.7             88.3047        -1.68289e+06           5.466e+07
   13.67             60932.9             88.0767        -1.67566e+06         5.44247e+07
   13.69             60692.6             87.8524         -1.6685e+06         5.41911e+07
   13.71             60454.9             87.6316         -1.6614e+06         5.39594e+07
   13.73             60219.7             87.4143        -1.65436e+06         5.37295e+07
   13.75             59987.1             87.2005        -1.64738e+06         5.35014e+07
   13.77             59756.9             86.9903        -1.64046e+06         5.32751e+07
   13.79             59529.2             86.7835         -1.6336e+06         5.30505e+07
   13.81               59304               86.58         -1.6268e+06         5.28278e+07
   13.83             59081.2               86.38        -1.62007e+06         5.26069e+07
   13.85             58860.9             86.1834        -1.61339e+06         5.23877e+07
   13.87             58642.9               85.99        -1.60677e+06         5.21703e+07
   13.89             58427.4                85.8        -1.60021e+06         5.19546e+07
   13.91             58214.3             85.6132        -1.59371e+06         5.17407e+07
   13.93             58003.5             85.4296        -1.58727e+06         5.15285e+07
   13.95               57795             85.2492        -1.58088e+06         5.13181e+07
   13.97             57588.9              85.072        -1.57455e+06         5.11094e+07
   13.99             57385.1             84.8979        -1.56828e+06         5.09024e+07
   14.01             57183.5             84.7269        -1.56207e+06         5.06971e+07
   14.03             56984.3              84.559        -1.55591e+06         5.04934e+07
   14.05             56787.3             84.3941        -1.54981e+06         5.02915e+07
   14.07             56592.5             84.2322        -1.54377e+06         5.00913e+07
   14.09               56400             84.0733        -1.53778e+06         4.98927e+07
   14.11             56209.7             83.9173        -1.53184e+06         4.96958e+07
   14.13             56021.5             83.7643        -1.52596e+06         4.95005e+07
   14.15             55835.6             83.6141        -1.52013e+06         4.93069e+07
   14.17             55651.8             83.4668        -1.51436e+06         4.91149e+07
   14.19             55470.1             83.3222        -1.50864e+06         4.89246e+07
   14.21             55290.5             83.1805        -1.50298e+06         4.87359e+07
   14.23             55113.1             83.0415        -1.49737e+06         4.85487e+07
   14.25             54937.7             82.9052        -1.49181e+06         4.83632e+07
   14.27             54764.4             82.7716         -1.4863e+06         4.81793e+07
   14.29             54593.1             82.6406        -1.48085e+06         4.79969e+07
   14.31             54423.9             82.5123        -1.47544e+06         4.78161e+07
   14.33             54256.6             82.3866        -1.47009e+06         4.76369e+07
   14.35             54091.4             82.2634        -1.46479e+06         4.74592e+07
   14.37             53928.2             82.1428        -1.45954e+06         4.72831e+07
   14.39             53766.9             82.0246        -1.45433e+06         4.71085e+07
   14.41             53607.5              81.909        -1.44918e+06         4.69355e+07
   14.43             53450.1             81.7957        -1.44408e+06         4.67639e+07
   14.45             53294.6             81.6849        -1.43903e+06         4.65939e+07
   14.47               53141             81.5764        -1.43402e+06         4.64253e+07
   14.49             52989.2             81.4703        -1.42906e+06         4.62583e+07
   14.51             52839.4             81.3665        -1.42416e+06         4.60927e+07
   14.53             52691.3              81.265        -1.41929e+06         4.59286e+07
   14.55             52545.1             81.1658        -1.41448e+06         4.57659e+07
   14.57             52400.7             81.0687        -1.40971e+06         4.56047e+07
   14.59               52258             80.9739        -1.40499e+06          4.5445e+07
   14.61             52117.2             80.8812        -1.40032e+06         4.52866e+07
   14.63             51978.1             80.7907        -1.39569e+06         4.51297e+07
   14.65             51840.7             80.7022         -1.3911e+06         4.49742e+07
   14.67               51705             80.6158        -1.38656e+06         4.48201e+07
   14.69             51571.1             80.5315        -1.38207e+06         4.46674e+07
   14.71             51438.8             80.4492        -1.37762e+06         4.45161e+07
   14.73             51308.2             80.3689        -1.37321e+06         4.43661e+07
   14.75             51179.3             80.2906        -1.36885e+06         4.42175e+07
   14.77               51052             80.2141        -1.36453e+06         4.40703e+07
   14.79             50926.3             80.1396        -1.36025e+06         4.39244e+07
   14.81             50802.2              80.067        -1.35602e+06         4.37798e+07
   14.83             50679.7             79.9962        -1.35182e+06         4.36366e+07
   14.85             50558.7             79.9272        -1.34767e+06         4.34947e+07
   14.87             50439.3               79.86        -1.34356e+06          4.3354e+07
   14.89             50321.5             79.7945        -1.33949e+06         4.32147e+07
   14.91             50205.1             79.7308        -1.33546e+06         4.30767e+07
   14.93             50090.3             79.6688        -1.33148e+06         4.29399e+07
   14.95             49976.9             79.6085        -1.32753e+06         4.28044e+07
   14.97               49865             79.5499        -1.32362e+06         4.26701e+07
   14.99             49754.6             79.4928        -1.31975e+06         4.25371e+07
   15.01             49645.6             79.4374        -1.31592e+06         4.24054e+07
   15.03               49538             79.3835        -1.31213e+06         4.22748e+07
   15.05             49431.8             79.3312        -1.30837e+06         4.21455e+07
   15.07               49327             79.2804        -1.30465e+06         4.20174e+07
   15.09             49223.6             79.2311        -1.30098e+06         4.18904e+07
   15.11             49121.5             79.1833        -1.29733e+06         4.17647e+07
   15.13             49020.8             79.1369        -1.29373e+06         4.16401e+07
   15.15             48921.3             79.0919        -1.29016e+06         4.15167e+07
   15.17             48823.2             79.0483        -1.28662e+06         4.13945e+07
   15.19             48726.4             79.0061        -1.28313e+06         4.12734e+07
   15.21             48630.9             78.9653        -1.27966e+06         4.11534e+07
   15.23             48536.6             78.9257        -1.27624e+06         4.10346e+07
   15.25             48443.6             78.8875        -1.27284e+06         4.09169e+07
   15.27             48351.7             78.8505        -1.26949e+06         4.08003e+07
   15.29             48261.1             78.8147        -1.26616e+06         4.06848e+07
   15.31             48171.7             78.7802        -1.26287e+06         4.05704e+07
   15.33             48083.5             78.7469        -1.25961e+06         4.04571e+07
   15.35             47996.5             78.7147        -1.25639e+06         4.03448e+07
   15.37             47910.6             78.6838        -1.25319e+06         4.02336e+07
   15.39             47825.8             78.6539        -1.25003e+06         4.01235e+07
   15.41             47742.1             78.6251         -1.2469e+06         4.00144e+07
   15.43             47659.6             78.5975        -1.24381e+06         3.99063e+07
   15.45             47578.2             78.5708        -1.24074e+06         3.97993e+07
   15.47             47497.8             78.5453        -1.23771e+06         3.96932e+07
   15.49             47418.5             78.5207         -1.2347e+06         3.95882e+07
   15.51             47340.2             78.4971        -1.23173e+06         3.94842e+07
   15.53               47263             78.4745        -1.22879e+06         3.93812e+07
   15.55             47186.8             78.4529        -1.22587e+06         3.92791e+07
   15.57             47111.6             78.4322        -1.22299e+06          3.9178e+07
   15.59             47037.4             78.4124        -1.22013e+06         3.90779e+07
   15.61             46964.1             78.3934         -1.2173e+06         3.89787e+07
   15.63             46891.8             78.3754         -1.2145e+06         3.88804e+07
   15.65             46820.5             78.3582        -1.21173e+06         3.87831e+07
   15.67             46750.1             78.3418        -1.20899e+06         3.86867e+07
   15.69             46680.6             78.3262        -1.20627e+06         3.85912e+07
   15.71             46612.1             78.3114        -1.20358e+06         3.84967e+07
   15.73             46544.4             78.2974        -1.20092e+06          3.8403e+07
   15.75             46477.6             78.2841        -1.19828e+06         3.83102e+07
   15.77             46411.7             78.2715        -1.19568e+06         3.82183e+07
   15.79             46346.6             78.2596        -1.19309e+06         3.81273e+07
   15.81             46282.3             78.2485        -1.19053e+06         3.80371e+07
   15.83             46218.9             78.2379          -1.188e+06         3.79477e+07
   15.85             46156.3             78.2281        -1.18549e+06         3.78593e+07
   15.87             46094.5             78.2188        -1.18301e+06         3.77716e+07
   15.89             46033.5             78.2102        -1.18055e+06         3.76848e+07
   15.91             45973.2             78.2022        -1.17811e+06         3.75988e+07
   15.93             45913.8             78.1947         -1.1757e+06         3.75136e+07
   15.95               45855             78.1878        -1.17332e+06         3.74292e+07
   15.97               45797             78.1814        -1.17095e+06         3.73456e+07
   15.99             45739.7             78.1756        -1.16861e+06         3.72628e+07
   16.01             45683.2             78.1702        -1.16629e+06         3.71807e+07
   16.03             45627.3             78.1654          -1.164e+06         3.70994e+07
   16.05             45572.1              78.161        -1.16172e+06         3.70189e+07
   16.07             45517.6              78.157        -1.15947e+06         3.69391e+07
   16.09             45463.8             78.1535        -1.15724e+06         3.68601e+07
   16.11             45410.6             78.1504        -1.15503e+06         3.67818e+07
   16.13               45358             78.1477        -1.15284e+06         3.67043e+07
   16.15             45306.1             78.1454        -1.15067e+06         3.66274e+07
   16.17             45254.8             78.1434        -1.14853e+06         3.65513e+07
   16.19             45204.1             78.1418         -1.1464e+06         3.64759e+07
   16.21               45154             78.1406        -1.14429e+06         3.64011e+07
   16.23             45104.4             78.1396        -1.14221e+06         3.63271e+07
   16.25             45055.5              78.139        -1.14014e+06         3.62537e+07
   16.27               45007             78.1386        -1.13809e+06          3.6181e+07
   16.29             44959.2             78.1385        -1.13606e+06          3.6109e+07
   16.31             44911.9             78.1387        -1.13405e+06         3.60377e+07
   16.33             44865.1             78.1391        -1.13206e+06         3.59669e+07
   16.35             44818.8             78.1398        -1.13008e+06         3.58969e+07
   16.37               44773             78.1406        -1.12813e+06         3.58274e+07
   16.39             44727.7             78.1416        -1.12619e+06         3.57586e+07
   16.41             44682.9             78.1429        -1.12427e+06         3.56904e+07
   16.43             44638.6             78.1443        -1.12237e+06         3.56229e+07
   16.45             44594.8             78.1458        -1.12048e+06         3.55559e+07
   16.47             44551.4             78.1475        -1.11861e+06         3.54895e+07
   16.49             44508.4             78.1493        -1.11676e+06         3.54238e+07
   16.51             44465.9             78.1512        -1.11492e+06         3.53586e+07
   16.53             44423.8             78.1532         -1.1131e+06          3.5294e+07
   16.55             44382.1             78.1553         -1.1113e+06         3.52299e+07
   16.57             44340.8             78.1575        -1.10951e+06         3.51665e+07
   16.59             44299.9             78.1597        -1.10774e+06         3.51036e+07
   16.61             44259.4              78.162        -1.10598e+06         3.50412e+07
   16.63             44219.3             78.1643        -1.10423e+06         3.49794e+07
   16.65             44179.6             78.1666        -1.10251e+06         3.49181e+07
   16.67             44140.2              78.169        -1.10079e+06         3.48574e+07
   16.69             44101.1             78.1713         -1.0991e+06         3.47972e+07
   16.71             44062.4             78.1736        -1.09741e+06         3.47375e+07
   16.73               44024             78.1758        -1.09574e+06         3.46783e+07
   16.75               43986              78.178        -1.09408e+06         3.46197e+07
   16.77             43948.3             78.1802        -1.09244e+06         3.45615e+07
   16.79             43910.8             78.1823        -1.09081e+06         3.45038e+07
   16.81             43873.7             78.1843         -1.0892e+06         3.44467e+07
   16.83             43836.9             78.1862        -1.08759e+06           3.439e+07
   16.85             43800.3              78.188          -1.086e+06         3.43337e+07
   16.87             43764.1             78.1897        -1.08443e+06          3.4278e+07
   16.89               43728             78.1913        -1.08286e+06         3.42227e+07
   16.91             43692.3             78.1927        -1.08131e+06         3.41679e+07
   16.93             43656.8              78.194        -1.07977e+06         3.41135e+07
   16.95             43621.5             78.1951        -1.07824e+06         3.40596e+07
   16.97             43586.5              78.196        -1.07672e+06         3.40062e+07
   16.99             43551.7             78.1968        -1.07522e+06         3.39531e+07
   17.01             43517.1             78.1973        -1.07373e+06         3.39005e+07
   17.03             43482.8             78.1977        -1.07224e+06         3.38484e+07
   17.05             43448.6             78.1978        -1.07077e+06         3.37966e+07
   17.07             43414.7             78.1978        -1.06931e+06         3.37453e+07
   17.09             43380.9             78.1974        -1.06786e+06         3.36944e+07
   17.11             43347.3             78.1969        -1.06643e+06         3.36439e+07
   17.13             43313.9             78.1961          -1.065e+06         3.35938e+07
   17.15             43280.7              78.195        -1.06358e+06         3.35441e+07
   17.17             43247.6             78.1936        -1.06217e+06         3.34948e+07
   17.19             43214.7              78.192        -1.06078e+06         3.34458e+07
   17.21               43182             78.1901        -1.05939e+06         3.33973e+07
   17.23             43149.4             78.1878        -1.05801e+06         3.33491e+07
   17.25             43116.9             78.1853        -1.05664e+06         3.33014e+07
   17.27             43084.6             78.1824        -1.05529e+06         3.32539e+07
   17.29             43052.4             78.1792        -1.05394e+06         3.32069e+07
   17.31             43020.4             78.1757         -1.0526e+06         3.31602e+07
   17.33             42988.4             78.1718        -1.05127e+06         3.31138e+07
   17.35             42956.6             78.1675        -1.04995e+06         3.30678e+07
   17.37             42924.8             78.1629        -1.04863e+06         3.30222e+07
   17.39             42893.2             78.1579        -1.04733e+06         3.29769e+07
   17.41             42861.7             78.1526        -1.04603e+06         3.29319e+07
   17.43             42830.2             78.1468        -1.04475e+06         3.28873e+07
   17.45             42798.8             78.1407        -1.04347e+06          3.2843e+07
   17.47             42767.6             78.1341         -1.0422e+06         3.27991e+07
   17.49             42736.3             78.1271        -1.04094e+06         3.27554e+07
   17.51             42705.2             78.1197        -1.03968e+06         3.27121e+07
   17.53             42674.1             78.1119        -1.03843e+06         3.26691e+07
   17.55             42643.1             78.1036         -1.0372e+06         3.26264e+07
   17.57             42612.2             78.0949        -1.03596e+06          3.2584e+07
   17.59             42581.2             78.0858        -1.03474e+06         3.25419e+07
   17.61             42550.4             78.0761        -1.03352e+06         3.25001e+07
   17.63             42519.6             78.0661        -1.03232e+06         3.24586e+07
   17.65             42488.8             78.0555        -1.03111e+06         3.24174e+07
   17.67               42458             78.0445        -1.02992e+06         3.23765e+07
   17.69             42427.3             78.0329        -1.02873e+06         3.23358e+07
   17.71             42396.6             78.0209        -1.02755e+06         3.22955e+07
   17.73             42365.9             78.0084        -1.02638e+06         3.22554e+07
   17.75             42335.3             77.9954        -1.02521e+06         3.22156e+07
   17.77             42304.6             77.9819        -1.02405e+06         3.21761e+07
   17.79               42274             77.9678         -1.0229e+06         3.21369e+07
   17.81             42243.4             77.9532        -1.02175e+06         3.20979e+07
   17.83             42212.8             77.9381        -1.02061e+06         3.20592e+07
   17.85             42182.1             77.9225        -1.01947e+06         3.20207e+07
   17.87             42151.5             77.9063        -1.01834e+06         3.19825e+07
   17.89             42120.9             77.8896        -1.01722e+06         3.19446e+07
   17.91             42090.2             77.8723         -1.0161e+06         3.19069e+07
   17.93             42059.6             77.8545        -1.01499e+06         3.18695e+07
   17.95             42028.9              77.836        -1.01389e+06         3.18323e+07
   17.97             41998.2             77.8171        -1.01279e+06         3.17953e+07
   17.99             41967.5             77.7975         -1.0117e+06         3.17586e+07
   18.01             41936.7             77.7774        -1.01061e+06         3.17221e+07
   18.03               41906             77.7567        -1.00953e+06         3.16859e+07
   18.05             41875.1             77.7354        -1.00845e+06         3.16499e+07
   18.07             41844.3             77.7135        -1.00738e+06         3.16142e+07
   18.09             41813.4              77.691        -1.00631e+06         3.15786e+07
   18.11             41782.5             77.6679        -1.00525e+06         3.15433e+07
   18.13             41751.6             77.6442         -1.0042e+06         3.15082e+07
   18.15             41720.6             77.6199        -1.00315e+06         3.14734e+07
   18.17             41689.5              77.595        -1.00211e+06         3.14387e+07
   18.19             41658.4             77.5694        -1.00107e+06         3.14043e+07
   18.21             41627.3             77.5433        -1.00003e+06         3.13701e+07
   18.23             41596.1             77.5165             -999002         3.13361e+07
   18.25             41564.8             77.4891             -997977         3.13023e+07
   18.27             41533.5              77.461             -996957         3.12687e+07
   18.29             41502.2             77.4323             -995942         3.12353e+07
   18.31             41470.7              77.403             -994932         3.12022e+07
   18.33             41439.2              77.373             -993927         3.11692e+07
   18.35             41407.7             77.3424             -992926         3.11365e+07
   18.37             41376.1             77.3111             -991930         3.11039e+07
   18.39             41344.4             77.2792             -990938         3.10716e+07
   18.41             41312.6             77.2466             -989951         3.10394e+07
   18.43             41280.8             77.2133             -988969         3.10074e+07
   18.45             41248.9             77.1794             -987991         3.09757e+07
   18.47               41217             77.1448             -987017         3.09441e+07
   18.49             41184.9             77.1096             -986048         3.09127e+07
   18.51             41152.8             77.0737             -985083         3.08815e+07
   18.53             41120.6             77.0371             -984122         3.08505e+07
   18.55             41088.4             76.9999             -983166         3.08196e+07
   18.57               41056             76.9619             -982213          3.0789e+07
   18.59             41023.6             76.9233             -981265         3.07585e+07
   18.61             40991.1              76.884             -980322         3.07283e+07
   18.63             40958.5              76.844             -979382         3.06982e+07
   18.65             40925.9             76.8034             -978446         3.06682e+07
   18.67             40893.1              76.762             -977515         3.06385e+07
   18.69             40860.3               76.72             -976587         3.06089e+07
   18.71             40827.4             76.6773             -975664         3.05795e+07
   18.73             40794.4             76.6339             -974744         3.05503e+07
   18.75             40761.3             76.5898             -973829         3.05213e+07
   18.77             40728.2              76.545             -972917         3.04924e+07
   18.79             40694.9             76.4995             -972010         3.04637e+07
   18.81             40661.6             76.4533             -971106         3.04352e+07
   18.83             40628.1             76.4064             -970206         3.04068e+07
   18.85             40594.6             76.3588             -969310         3.03786e+07
   18.87               40561             76.3106             -968417         3.03506e+07
   18.89             40527.3             76.2616             -967529         3.03227e+07
   18.91             40493.6             76.2119             -966644          3.0295e+07
   18.93             40459.7             76.1615             -965763         3.02675e+07
   18.95             40425.8             76.1105             -964886         3.02401e+07
   18.97             40391.7             76.0587             -964013         3.02129e+07
   18.99             40357.6             76.0062             -963143         3.01859e+07
   19.01             40323.4              75.953             -962277          3.0159e+07
   19.03             40289.1             75.8991             -961415         3.01323e+07
   19.05             40254.7             75.8446             -960556         3.01057e+07
   19.07             40220.2             75.7893             -959701         3.00793e+07
   19.09             40185.6             75.7333             -958850         3.00531e+07
   19.11               40151             75.6766             -958002          3.0027e+07
   19.13             40116.3             75.6192             -957158          3.0001e+07
   19.15             40081.4             75.5611             -956318         2.99752e+07
   19.17             40046.5             75.5023             -955481         2.99496e+07
   19.19             40011.5             75.4429             -954648         2.99241e+07
   19.21             39976.4             75.3827             -953818         2.98988e+07
   19.23             39941.2             75.3218             -952992         2.98737e+07
   19.25               39906             75.2602             -952169         2.98486e+07
   19.27             39870.6             75.1979             -951350         2.98238e+07
   19.29             39835.2             75.1349             -950535         2.97991e+07
   19.31             39799.7             75.0713             -949723         2.97745e+07
   19.33             39764.1             75.0069             -948914         2.97501e+07
   19.35             39728.4             74.9418             -948109         2.97258e+07
   19.37             39692.7             74.8761             -947308         2.97017e+07
   19.39             39656.8             74.8096             -946510         2.96778e+07
   19.41             39620.9             74.7425             -945716          2.9654e+07
   19.43             39584.9             74.6746             -944925         2.96303e+07
   19.45             39548.8             74.6061             -944138         2.96068e+07
   19.47             39512.6             74.5369             -943354         2.95834e+07
   19.49             39476.4              74.467             -942573         2.95602e+07
   19.51               39440             74.3965             -941796         2.95371e+07
   19.53             39403.6             74.3252             -941023         2.95142e+07
   19.55             39367.2             74.2533             -940253         2.94914e+07
   19.57             39330.6             74.1807             -939486         2.94687e+07
   19.59               39294             74.1074             -938723         2.94462e+07
   19.61             39257.3             74.0334             -937963         2.94239e+07
   19.63             39220.5             73.9588             -937207         2.94017e+07
   19.65             39183.6             73.8835             -936454         2.93796e+07
   19.67             39146.7             73.8075             -935705         2.93577e+07
   19.69             39109.7             73.7308             -934959         2.93359e+07
   19.71             39072.6             73.6535             -934217         2.93143e+07
   19.73             39035.5             73.5756             -933478         2.92928e+07
   19.75             38998.3             73.4969             -932742         2.92714e+07
   19.77               38961             73.4176             -932010         2.92502e+07
   19.79             38923.7             73.3377             -931281         2.92291e+07
   19.81             38886.3             73.2571             -930556         2.92082e+07
   19.83             38848.8             73.1758             -929834         2.91874e+07
   19.85             38811.3             73.0939             -929116         2.91668e+07
   19.87             38773.7             73.0114             -928400         2.91463e+07
   19.89               38736             72.9282             -927689         2.91259e+07
   19.91             38698.3             72.8444             -926980         2.91056e+07
   19.93             38660.5             72.7599             -926276         2.90856e+07
   19.95             38622.7             72.6748             -925574         2.90656e+07
   19.97             38584.8             72.5891             -924876         2.90458e+07
   19.99             38546.8             72.5027             -924181         2.90261e+07
